stamp_sec,gyro_x,gyro_y,gyro_z,accel_x,accel_y,accel_z
1732437229.399620295,0.00561165064573288,-0.011122403666377068,-0.01260627806186676,-0.46937164664268494,-0.027414068579673767,0.8716269731521606
1732437229.404076815,0.006676914170384407,-0.010057139210402966,-0.010475747287273407,-0.46204742789268494,-0.027169927954673767,0.8726035356521606
1732437229.409631014,0.008807443082332611,-0.01218766812235117,-0.0072799548506736755,-0.46693024039268494,-0.024484381079673767,0.8811484575271606
1732437229.413654327,0.0034811217337846756,-0.014318197034299374,-0.0072799548506736755,-0.46644195914268494,-0.022531256079673767,0.8755332231521606
1732437229.419864893,0.0034811217337846756,-0.01218766812235117,-0.008345220237970352,-0.46546539664268494,-0.023751959204673767,0.8787070512771606
1732437229.423947811,0.00561165064573288,-0.010057139210402966,-0.0072799548506736755,-0.45862945914268494,-0.024240240454673767,0.8801718950271606
1732437229.429626703,0.004546385258436203,-0.007926610298454762,-0.0072799548506736755,-0.45814117789268494,-0.024240240454673767,0.8848105669021606
1732437229.434051514,0.0034811217337846756,-0.007926610298454762,-0.004084162414073944,-0.46741852164268494,-0.024728521704673767,0.8872519731521606
1732437229.439574718,0.004546385258436203,-0.003665551543235779,-0.0030188970267772675,-0.46766266226768494,-0.022775396704673767,0.8726035356521606
1732437229.443691969,-0.0018452014774084091,-0.0047308169305324554,-0.0030188970267772675,-0.47596344351768494,-0.023263677954673767,0.8711386919021606
1732437229.449702501,-0.003975730389356613,-0.013252932578325272,-0.0008883699774742126,-0.48670563101768494,-0.024240240454673767,0.8845664262771606
1732437229.453952789,-0.002910465933382511,-0.02070978283882141,0.003372691571712494,-0.47840484976768494,-0.021554693579673767,0.8672324419021606
1732437229.459683657,-0.0007799370214343071,-0.02497084066271782,0.004437953233718872,-0.47083649039268494,-0.021066412329673767,0.8686972856521606
1732437229.463964462,-0.0018452014774084091,-0.0281666349619627,-0.001953631639480591,-0.44178375601768494,-0.03132031857967377,0.8679648637771606
1732437229.469696522,0.0002853274345397949,-0.03562348708510399,-0.005149427801370621,-0.41907867789268494,-0.05060742795467377,0.8884726762771606
1732437229.473767996,0.009872708469629288,-0.03775401413440704,-0.001953631639480591,-0.40906891226768494,-0.05426953732967377,0.9133750200271606
1732437229.479702711,0.012003237381577492,-0.027101371437311172,-0.006214689463376999,-0.40296539664268494,-0.04279492795467377,0.9136191606521606
1732437229.483880758,0.007742179557681084,-0.007926610298454762,-0.014736805111169815,-0.40491852164268494,-0.03644727170467377,0.9094687700271606
1732437229.489856720,0.006676914170384407,0.0037912987172603607,-0.021128393709659576,-0.43177399039268494,-0.03693555295467377,0.9177695512771606
1732437229.493883133,0.008807443082332611,0.0112481489777565,-0.021128393709659576,-0.43494781851768494,-0.023019537329673767,0.8857871294021606
1732437229.499586344,0.010937971994280815,0.009117621928453445,-0.024324186146259308,-0.44959625601768494,-0.019601568579673767,0.8848105669021606
1732437229.504050255,0.021590618416666985,0.0016607698053121567,-0.01580207049846649,-0.47791656851768494,-0.015207038260996342,0.8911582231521606
1732437229.509496450,0.010937971994280815,-0.0068613458424806595,-0.014736805111169815,-0.44715484976768494,-0.004464850760996342,0.8538047075271606
1732437229.513849497,0.0013505928218364716,-0.019644519314169884,-0.018997862935066223,-0.46155914664268494,-0.023751959204673767,0.8870078325271606
1732437229.519544125,0.006676914170384407,-0.027101371437311172,-0.010475747287273407,-0.44984039664268494,-0.030099615454673767,0.8950644731521606
1732437229.523850441,0.014133766293525696,-0.02497084066271782,-0.006214689463376999,-0.44129547476768494,-0.022531256079673767,0.8967734575271606
1732437229.529552221,0.008807443082332611,-0.015383461490273476,-0.013671543449163437,-0.41590484976768494,-0.015207038260996342,0.8791953325271606
1732437229.533685684,0.0034811217337846756,-0.005796080455183983,-0.02325892075896263,-0.42420563101768494,-0.024240240454673767,0.9053183794021606
1732437229.539930582,0.010937971994280815,-0.00046975910663604736,-0.021128393709659576,-0.41370758414268494,-0.023507818579673767,0.8918906450271606
1732437229.543864489,0.015199029818177223,-0.00046975910663604736,-0.01686733588576317,-0.43812164664268494,-0.009347663260996342,0.8972617387771606
1732437229.549686670,0.007742179557681084,-0.00046975910663604736,-0.01686733588576317,-0.45081695914268494,0.004812492989003658,0.8845664262771606
1732437229.553824902,-0.002910465933382511,0.004856564104557037,-0.014736805111169815,-0.46888336539268494,0.009207024239003658,0.8755332231521606
1732437229.559790134,-0.009302052669227123,0.005921827629208565,-0.004084162414073944,-0.48841461539268494,0.005544914864003658,0.8794394731521606
1732437229.563947439,-0.010367317125201225,-0.0026002880185842514,0.003372691571712494,-0.46985992789268494,-0.003000006778165698,0.8684531450271606
1732437229.569934368,-0.009302052669227123,-0.013252932578325272,0.01189480721950531,-0.47010406851768494,-0.020578131079673767,0.8794394731521606
1732437229.574052572,-0.008236788213253021,-0.01218766812235117,0.017221130430698395,-0.46570953726768494,-0.03351758420467377,0.8811484575271606
1732437229.579581738,-0.013563110493123531,-0.0068613458424806595,0.017221130430698395,-0.45887359976768494,-0.04450391232967377,0.8794394731521606
1732437229.584060431,-0.01888943277299404,-0.007926610298454762,0.015090599656105042,-0.46693024039268494,-0.06110547482967377,0.8904258012771606
1732437229.589792013,-0.014628374949097633,-0.014318197034299374,0.015090599656105042,-0.45716461539268494,-0.07111524045467377,0.8845664262771606
1732437229.593876362,-0.007171523757278919,-0.03136242926120758,0.01189480721950531,-0.44520172476768494,-0.07697461545467377,0.8857871294021606
1732437229.599545479,0.002415856346487999,-0.044145602732896805,0.002307422459125519,-0.43323883414268494,-0.08234570920467377,0.9004355669021606
1732437229.604755402,0.010937971994280815,-0.04201507568359375,-0.010475747287273407,-0.40125641226768494,-0.08747266232967377,0.9072715044021606
1732437229.609562397,0.02265588380396366,-0.023905577138066292,-0.02645471692085266,-0.39222320914268494,-0.08478711545467377,0.9197226762771606
1732437229.613904715,0.027982203289866447,0.0005955062806606293,-0.04136841744184494,-0.39905914664268494,-0.06720899045467377,0.9126425981521606
1732437229.619862080,0.029047468677163124,0.022966060787439346,-0.05521685630083084,-0.40809234976768494,-0.04499219357967377,0.8889609575271606
1732437229.624014854,0.03330852836370468,0.020835530012845993,-0.057347387075424194,-0.44153961539268494,-0.024728521704673767,0.8904258012771606
1732437229.629747391,0.035439059138298035,-0.00046975910663604736,-0.05095579847693443,-0.44788727164268494,0.000662102596834302,0.8738242387771606
1732437229.634109259,0.032243259251117706,-0.01218766812235117,-0.03710736334323883,-0.45887359976768494,0.020925775170326233,0.8748008012771606
1732437229.639899731,0.0301127340644598,-0.010057139210402966,-0.02325892075896263,-0.46400055289268494,0.03801561892032623,0.8879843950271606
1732437229.643974304,0.020525353029370308,-0.0026002880185842514,-0.009410485625267029,-0.47816070914268494,0.05095507204532623,0.8901816606521606
1732437229.649704695,-0.0007799370214343071,0.005921827629208565,-0.0008883699774742126,-0.48279938101768494,0.05534960329532623,0.8769980669021606
1732437229.653795481,-0.016758903861045837,0.005921827629208565,0.014025337994098663,-0.49915680289268494,0.04802538454532623,0.8679648637771606
1732437229.659619093,-0.024215754121541977,-0.0047308169305324554,0.031069569289684296,-0.5050162076950073,0.03752733767032623,0.8672324419021606
1732437229.663820028,-0.034868400543928146,-0.0281666349619627,0.04278747737407684,-0.49061188101768494,0.017996087670326233,0.8589316606521606
1732437229.669955254,-0.04019472002983093,-0.06012456864118576,0.045983269810676575,-0.45618805289268494,-0.021798834204673767,0.8701621294021606
1732437229.674011469,-0.034868400543928146,-0.07503826916217804,0.03959168493747711,-0.39759430289268494,-0.06916211545467377,0.8989707231521606
1732437229.679765940,-0.01888943277299404,-0.06438562273979187,0.023612715303897858,-0.34144195914268494,-0.11139844357967377,0.9197226762771606
1732437229.684109211,-0.002910465933382511,-0.033492956310510635,0.000176895409822464,-0.32191070914268494,-0.12751172482967377,0.9402304887771606
1732437229.689775467,0.012003237381577492,0.005921827629208565,-0.027519982308149338,-0.33582672476768494,-0.12140820920467377,0.9502402544021606
1732437229.693819046,0.02372114546597004,0.03681449964642525,-0.04882527142763138,-0.37342438101768494,-0.09675000607967377,0.9358359575271606
1732437229.699896097,0.0301127340644598,0.05385873094201088,-0.06480424106121063,-0.43128570914268494,-0.05353711545467377,0.9058066606521606
1732437229.704784632,0.03330852836370468,0.05705452337861061,-0.06693476438522339,-0.48939117789268494,-0.011300788260996342,0.8716269731521606
1732437229.709674835,0.031177999451756477,0.04214082285761833,-0.053086329251527786,-0.5326040983200073,0.024832025170326233,0.8513633012771606
1732437229.713985920,0.02265588380396366,0.006987093016505241,-0.02645471692085266,-0.5509146451950073,0.05071093142032623,0.8418418169021606
1732437229.719724655,0.004546385258436203,-0.03562348708510399,0.000176895409822464,-0.5406607389450073,0.05705858767032623,0.8435508012771606
1732437229.724062681,-0.014628374949097633,-0.0675814226269722,0.01935165375471115,-0.49744781851768494,0.03337694704532623,0.8638144731521606
1732437229.729592085,-0.02315049059689045,-0.08036459982395172,0.03000430017709732,-0.44861969351768494,-0.007394538260996342,0.9014121294021606
1732437229.733899117,-0.01995469629764557,-0.06864668428897858,0.032134830951690674,-0.38831695914268494,-0.04377149045467377,0.9143515825271606
1732437229.739955902,-0.017824169248342514,-0.04201507568359375,0.015090599656105042,-0.34022125601768494,-0.07404492795467377,0.9270468950271606
1732437229.743747473,-0.002910465933382511,-0.011122403666377068,-0.009410485625267029,-0.34852203726768494,-0.09577344357967377,0.9534140825271606
1732437229.749539375,0.0162642952054739,0.02935764566063881,-0.028585243970155716,-0.37220367789268494,-0.08234570920467377,0.9268027544021606
1732437229.753827095,0.02265588380396366,0.06131558492779732,-0.04456420987844467,-0.44373688101768494,-0.04694531857967377,0.8879843950271606
1732437229.759605408,0.014133766293525696,0.06344610452651978,-0.05415159463882446,-0.49720367789268494,-0.012521491385996342,0.8428183794021606
1732437229.763604879,0.004546385258436203,0.019770268350839615,-0.04243368282914162,-0.5245474576950073,0.004568352364003658,0.8335410356521606
1732437229.769960403,0.0034811217337846756,-0.050537191331386566,-0.014736805111169815,-0.5089224576950073,0.007253899239003658,0.8462363481521606
1732437229.774044514,0.007742179557681084,-0.11019200086593628,0.009764276444911957,-0.45203766226768494,0.004324211739003658,0.8765097856521606
1732437229.779619932,-0.0007799370214343071,-0.11445306241512299,0.014025337994098663,-0.38392242789268494,-0.014718757010996342,0.9255820512771606
1732437229.783973217,0.0013505928218364716,-0.050537191331386566,0.0076337456703186035,-0.36194977164268494,-0.03864453732967377,0.9687949419021606
1732437229.789505243,0.007742179557681084,0.04001029208302498,0.002307422459125519,-0.38807281851768494,-0.030099615454673767,0.9663535356521606
1732437229.793746948,-0.005040994845330715,0.09220825135707855,-0.01260627806186676,-0.41297516226768494,-0.006662116385996342,0.8921347856521606
1732437229.799918890,-0.024215754121541977,0.07090295851230621,-0.022193659096956253,-0.47742828726768494,-0.013498053885996342,0.8613730669021606
1732437229.804183006,-0.01888943277299404,0.0027260351926088333,-0.005149427801370621,-0.49647125601768494,-0.029855474829673767,0.8284140825271606
1732437229.809604168,-0.003975730389356613,-0.07290774583816528,0.01935165375471115,-0.45789703726768494,-0.03840039670467377,0.8362265825271606
1732437229.814228773,0.0002853274345397949,-0.12404043972492218,0.024677976965904236,-0.40638336539268494,-0.05866406857967377,0.9082480669021606
1732437229.819467545,0.004546385258436203,-0.11019200086593628,0.009764276444911957,-0.35584625601768494,-0.07941602170467377,0.9644004106521606
1732437229.823801041,0.017329560592770576,-0.022840313613414764,-0.010475747287273407,-0.33924469351768494,-0.07355664670467377,0.9729453325271606
1732437229.830031395,0.01946008764207363,0.08049033582210541,-0.03497683256864548,-0.38026031851768494,-0.03986524045467377,0.9387656450271606
1732437229.833842754,0.00561165064573288,0.1177745908498764,-0.057347387075424194,-0.42933258414268494,-0.013742194510996342,0.8745566606521606
1732437229.839801311,0.0002853274345397949,0.06025031581521034,-0.05628212168812752,-0.45814117789268494,-0.014230475760996342,0.8372031450271606
1732437229.843759298,0.012003237381577492,-0.0398845449090004,-0.027519982308149338,-0.47278961539268494,-0.016916021704673767,0.8589316606521606
1732437229.849756718,0.02265588380396366,-0.09740883111953735,-0.001953631639480591,-0.44251617789268494,-0.014230475760996342,0.8840781450271606
1732437229.853833437,0.02372114546597004,-0.07610353827476501,0.010829538106918335,-0.44788727164268494,-0.006662116385996342,0.9353476762771606
1732437229.859828949,0.009872708469629288,-0.00046975910663604736,0.006568484008312225,-0.43934234976768494,0.012380852364003658,0.9285117387771606
1732437229.863955498,-0.017824169248342514,0.05705452337861061,-0.01260627806186676,-0.44031891226768494,0.016775384545326233,0.8894492387771606
1732437229.869773626,-0.028476811945438385,0.05705452337861061,-0.01686733588576317,-0.46497711539268494,-0.0003144599322695285,0.8635703325271606
1732437229.873981237,-0.013563110493123531,-0.01218766812235117,0.0012421607971191406,-0.46082672476768494,-0.014230475760996342,0.8613730669021606
1732437229.879632711,-0.0007799370214343071,-0.09953935444355011,0.020416922867298126,-0.42542633414268494,-0.025949224829673767,0.8911582231521606
1732437229.883848190,0.004546385258436203,-0.11551831662654877,0.017221130430698395,-0.38343414664268494,-0.03840039670467377,0.9280234575271606
1732437229.889821053,0.01306850090622902,-0.027101371437311172,0.004437953233718872,-0.39515289664268494,-0.031076177954673767,0.9495078325271606
1732437229.893752337,0.0002853274345397949,0.0762292891740799,-0.0200631283223629,-0.39515289664268494,-0.012765632010996342,0.9060508012771606
1732437229.899658442,-0.021019961684942245,0.08262087404727936,-0.04030315577983856,-0.42835602164268494,-0.023751959204673767,0.8884726762771606
1732437229.904031992,-0.01569363847374916,0.008052356541156769,-0.029650509357452393,-0.43494781851768494,-0.04352734982967377,0.8828574419021606
1732437229.909913540,0.010937971994280815,-0.07077721506357193,-0.004084162414073944,-0.42884430289268494,-0.03669141232967377,0.8840781450271606
1732437229.913775682,0.02265588380396366,-0.07929933071136475,0.004437953233718872,-0.43275055289268494,-0.011789069510996342,0.8994590044021606
1732437229.919802189,0.00561165064573288,-0.019644519314169884,-0.008345220237970352,-0.42029938101768494,0.004568352364003658,0.8894492387771606
1732437229.923961163,-0.022085227072238922,0.030422911047935486,-0.02325892075896263,-0.42152008414268494,-0.012033210135996342,0.9119101762771606
1732437229.929733753,-0.027411548420786858,0.02190079540014267,-0.031781040132045746,-0.38514313101768494,-0.05915234982967377,0.9111777544021606
1732437229.933760405,-0.002910465933382511,-0.016448725014925003,-0.0200631283223629,-0.41053375601768494,-0.07770703732967377,0.9199668169021606
1732437229.939937830,0.032243259251117706,-0.018579255789518356,0.0012421607971191406,-0.44422516226768494,-0.04425977170467377,0.9033652544021606
1732437229.943593979,0.012003237381577492,-0.0068613458424806595,-0.01260627806186676,-0.40638336539268494,-0.004220710135996342,0.8413535356521606
1732437229.949848413,-0.01569363847374916,-0.01218766812235117,-0.03071577474474907,-0.43348297476768494,-0.03205274045467377,0.9014121294021606
1732437229.953750134,-0.002910465933382511,-0.019644519314169884,-0.021128393709659576,-0.39197906851768494,-0.05549024045467377,0.9248496294021606
1732437229.959883690,0.02265588380396366,-0.021775048226118088,-0.008345220237970352,-0.40516266226768494,-0.04572461545467377,0.9351035356521606
1732437229.963956594,0.017329560592770576,-0.0026002880185842514,-0.014736805111169815,-0.40809234976768494,-0.015207038260996342,0.8889609575271606
1732437229.969887495,-0.010367317125201225,0.0250965878367424,-0.03071577474474907,-0.43226227164268494,-0.011544928885996342,0.8811484575271606
1732437229.973624706,-0.01569363847374916,0.008052356541156769,-0.022193659096956253,-0.43592438101768494,-0.03302930295467377,0.9111777544021606
1732437229.979946852,-0.003975730389356613,-0.044145602732896805,-0.004084162414073944,-0.40443024039268494,-0.04377149045467377,0.9182578325271606
1732437229.984052420,0.01306850090622902,-0.05905930697917938,0.0012421607971191406,-0.39735016226768494,-0.03669141232967377,0.9236289262771606
1732437229.989886522,0.0162642952054739,0.0005955062806606293,-0.006214689463376999,-0.41004547476768494,-0.014962897635996342,0.9023886919021606
1732437229.993699789,0.0002853274345397949,0.05598926171660423,-0.018997862935066223,-0.42786774039268494,-0.012765632010996342,0.8933554887771606
1732437229.999851227,-0.017824169248342514,0.037879761308431625,-0.018997862935066223,-0.42469391226768494,-0.03962109982967377,0.8933554887771606
1732437230.004080296,-0.013563110493123531,-0.018579255789518356,-0.009410485625267029,-0.41834625601768494,-0.06818555295467377,0.9075156450271606
1732437230.009887695,0.01306850090622902,-0.047341395169496536,0.004437953233718872,-0.40613922476768494,-0.06257031857967377,0.8904258012771606
1732437230.014472246,0.01946008764207363,-0.033492956310510635,0.004437953233718872,-0.41102203726768494,-0.03376172482967377,0.8914023637771606
1732437230.019705772,0.002415856346487999,-0.01218766812235117,-0.0072799548506736755,-0.40638336539268494,-0.030832037329673767,0.9170371294021606
1732437230.024113178,-0.006106259301304817,0.005921827629208565,-0.021128393709659576,-0.38611969351768494,-0.04279492795467377,0.9209433794021606
1732437230.029624939,0.012003237381577492,0.027227118611335754,-0.025389451533555984,-0.39149078726768494,-0.03791211545467377,0.9016562700271606
1732437230.034119844,0.029047468677163124,0.037879761308431625,-0.022193659096956253,-0.43177399039268494,-0.005929694510996342,0.8750449419021606
1732437230.039543390,0.01306850090622902,0.0027260351926088333,-0.014736805111169815,-0.49110016226768494,0.023611322045326233,0.9072715044021606
1732437230.043843031,-0.006106259301304817,-0.03562348708510399,-0.025389451533555984,-0.42542633414268494,0.004568352364003658,0.8633261919021606
1732437230.049519062,0.002415856346487999,-0.029231898486614227,-0.01580207049846649,-0.44764313101768494,-0.009103522635996342,0.8870078325271606
1732437230.054034710,0.024786410853266716,0.0016607698053121567,0.004437953233718872,-0.45521149039268494,0.019216790795326233,0.8889609575271606
1732437230.059897900,-0.002910465933382511,-0.014318197034299374,-0.004084162414073944,-0.42444977164268494,0.023855462670326233,0.8909140825271606
1732437230.063757181,-0.02315049059689045,-0.040949806571006775,-0.011541012674570084,-0.45154938101768494,-0.004953132010996342,0.9358359575271606
1732437230.069915295,0.002415856346487999,-0.02070978283882141,0.000176895409822464,-0.40784820914268494,-0.005441413260996342,0.8872519731521606
1732437230.073850632,0.004546385258436203,-0.0068613458424806595,0.004437953233718872,-0.41956695914268494,0.010183586739003658,0.8926230669021606
1732437230.079786539,-0.021019961684942245,-0.03775401413440704,-0.013671543449163437,-0.42835602164268494,-0.003976569510996342,0.9175254106521606
1732437230.084037542,-0.02634628489613533,-0.057994041591882706,-0.021128393709659576,-0.38489899039268494,-0.03986524045467377,0.9077597856521606
1732437230.089505434,0.0013505928218364716,-0.030297163873910904,-0.013671543449163437,-0.37293609976768494,-0.05402539670467377,0.9104453325271606
1732437230.093823195,0.009872708469629288,-0.00046975910663604736,-0.02645471692085266,-0.36902984976768494,-0.04279492795467377,0.9106894731521606
1732437230.099894285,-0.003975730389356613,0.004856564104557037,-0.04030315577983856,-0.36317047476768494,-0.04572461545467377,0.9036093950271606
1732437230.104040623,0.0002853274345397949,-0.005796080455183983,-0.039237890392541885,-0.38221344351768494,-0.05304883420467377,0.9226523637771606
1732437230.109554052,0.010937971994280815,-0.011122403666377068,-0.029650509357452393,-0.40784820914268494,-0.04450391232967377,0.9358359575271606
1732437230.114019871,0.007742179557681084,-0.008991874754428864,-0.02645471692085266,-0.38367828726768494,-0.026193365454673767,0.8843222856521606
1732437230.119919062,-0.0018452014774084091,-0.0015350226312875748,-0.024324186146259308,-0.44666656851768494,-0.029611334204673767,0.9192343950271606
1732437230.124100685,-0.006106259301304817,0.0016607698053121567,-0.01686733588576317,-0.43641266226768494,-0.03327344357967377,0.9006797075271606
1732437230.129882574,-0.011432581581175327,-0.0047308169305324554,-0.013671543449163437,-0.41273102164268494,-0.04865430295467377,0.8799277544021606
1732437230.133816004,-0.009302052669227123,-0.018579255789518356,-0.0030188970267772675,-0.43616852164268494,-0.07111524045467377,0.9131308794021606
1732437230.140043020,0.00561165064573288,-0.023905577138066292,0.008699014782905579,-0.42127594351768494,-0.07819531857967377,0.9077597856521606
1732437230.143849373,0.00561165064573288,-0.023905577138066292,0.014025337994098663,-0.40443024039268494,-0.06012891232967377,0.8982383012771606
1732437230.149781942,-0.002910465933382511,-0.01751399040222168,0.002307422459125519,-0.41492828726768494,-0.06525586545467377,0.9092246294021606
1732437230.153761148,0.002415856346487999,-0.01218766812235117,-0.004084162414073944,-0.41956695914268494,-0.08185742795467377,0.9248496294021606
1732437230.159666777,0.0162642952054739,-0.015383461490273476,0.000176895409822464,-0.39246734976768494,-0.07355664670467377,0.9048300981521606
1732437230.164105415,0.017329560592770576,-0.018579255789518356,-0.006214689463376999,-0.41370758414268494,-0.05866406857967377,0.9255820512771606
1732437230.169727087,0.017329560592770576,-0.007926610298454762,-0.014736805111169815,-0.40174469351768494,-0.05549024045467377,0.9009238481521606
1732437230.173724174,0.02372114546597004,0.0016607698053121567,-0.010475747287273407,-0.41785797476768494,-0.04621289670467377,0.9123984575271606
1732437230.179728508,0.02691694162786007,-0.010057139210402966,-0.005149427801370621,-0.45301422476768494,-0.017160162329673767,0.9326621294021606
1732437230.183991909,0.015199029818177223,-0.02070978283882141,-0.009410485625267029,-0.39832672476768494,0.011404289864003658,0.8799277544021606
1732437230.189633131,0.010937971994280815,-0.03455822169780731,-0.009410485625267029,-0.43592438101768494,-0.014474616385996342,0.9387656450271606
1732437230.193753958,0.024786410853266716,-0.03775401413440704,-0.013671543449163437,-0.37952789664268494,-0.017404302954673767,0.9084922075271606
1732437230.199697256,0.025851676240563393,-0.0015350226312875748,-0.011541012674570084,-0.38270172476768494,0.000662102596834302,0.8940879106521606
1732437230.204140186,0.010937971994280815,0.02190079540014267,-0.01686733588576317,-0.37952789664268494,-0.000802741153165698,0.8982383012771606
1732437230.209676027,-0.0007799370214343071,-0.0026002880185842514,-0.02645471692085266,-0.38587555289268494,-0.030587896704673767,0.9116660356521606
1732437230.214025021,0.014133766293525696,-0.01218766812235117,-0.008345220237970352,-0.40198883414268494,-0.029123052954673767,0.9136191606521606
1732437230.219672203,0.02265588380396366,-0.0026002880185842514,0.004437953233718872,-0.40101227164268494,0.001150383846834302,0.8787070512771606
1732437230.224005222,-0.002910465933382511,-0.01218766812235117,-0.010475747287273407,-0.39881500601768494,-0.001535163028165698,0.8821250200271606
1732437230.229875326,-0.013563110493123531,-0.026036106050014496,-0.013671543449163437,-0.39979156851768494,-0.04010938107967377,0.9121543169021606
1732437230.233961105,0.007742179557681084,-0.013252932578325272,-0.001953631639480591,-0.37147125601768494,-0.06427930295467377,0.9014121294021606
1732437230.239740849,0.021590618416666985,0.008052356541156769,0.00550321489572525,-0.37415680289268494,-0.05646680295467377,0.9009238481521606
1732437230.244021416,0.012003237381577492,0.004856564104557037,-0.008345220237970352,-0.37269195914268494,-0.05426953732967377,0.8977500200271606
1732437230.249876261,0.007742179557681084,-0.005796080455183983,-0.008345220237970352,-0.39783844351768494,-0.06379102170467377,0.9304648637771606
1732437230.253654242,0.024786410853266716,-0.003665551543235779,-0.004084162414073944,-0.40198883414268494,-0.05915234982967377,0.9299765825271606
1732437230.259600163,0.03650432080030441,0.008052356541156769,-0.004084162414073944,-0.40418609976768494,-0.03449414670467377,0.9058066606521606
1732437230.264024258,0.02691694162786007,0.019770268350839615,-0.01260627806186676,-0.43787750601768494,-0.007882819510996342,0.9038535356521606
1732437230.269699097,0.014133766293525696,0.02829238399863243,-0.0200631283223629,-0.46595367789268494,0.001150383846834302,0.9062949419021606
1732437230.273877621,0.020525353029370308,0.020835530012845993,-0.01580207049846649,-0.46863922476768494,-0.000802741153165698,0.8840781450271606
1732437230.279971361,0.020525353029370308,-0.011122403666377068,-0.010475747287273407,-0.47010406851768494,-0.002023444278165698,0.8984824419021606
1732437230.283814192,0.02372114546597004,-0.050537191331386566,-0.0008883699774742126,-0.45106109976768494,0.000906243221834302,0.9092246294021606
1732437230.289883614,0.0162642952054739,-0.06332036852836609,0.000176895409822464,-0.40735992789268494,0.010916008614003658,0.9062949419021606
1732437230.293780804,0.006676914170384407,-0.04840666055679321,-0.011541012674570084,-0.39808258414268494,-0.004708991385996342,0.9302207231521606
1732437230.299651861,-0.003975730389356613,-0.011122403666377068,-0.027519982308149338,-0.36024078726768494,-0.022775396704673767,0.9119101762771606
1732437230.303856134,0.0002853274345397949,0.026161853224039078,-0.039237890392541885,-0.38148102164268494,-0.04743359982967377,0.9280234575271606
1732437230.309928656,0.010937971994280815,0.03148817643523216,-0.0339115671813488,-0.38929352164268494,-0.04499219357967377,0.9065390825271606
1732437230.313968182,0.01306850090622902,0.005921827629208565,-0.036042094230651855,-0.40565094351768494,-0.04865430295467377,0.8940879106521606
1732437230.319541454,0.020525353029370308,-0.014318197034299374,-0.022193659096956253,-0.41395172476768494,-0.05036328732967377,0.8931113481521606
1732437230.324054241,0.03330852836370468,-0.018579255789518356,-0.009410485625267029,-0.42884430289268494,-0.04255078732967377,0.8938437700271606
1732437230.329507351,0.024786410853266716,-0.008991874754428864,-0.005149427801370621,-0.41981109976768494,-0.03205274045467377,0.8728476762771606
1732437230.333873034,0.010937971994280815,-0.005796080455183983,-0.011541012674570084,-0.42274078726768494,-0.04474805295467377,0.8872519731521606
1732437230.339492559,0.007742179557681084,-0.00046975910663604736,-0.006214689463376999,-0.41956695914268494,-0.04670117795467377,0.8852988481521606
1732437230.343936205,0.020525353029370308,0.0037912987172603607,-0.0008883699774742126,-0.43519195914268494,-0.03742383420467377,0.8943320512771606
1732437230.349914312,0.02265588380396366,-0.010057139210402966,0.010829538106918335,-0.42860016226768494,-0.008371100760996342,0.8865195512771606
1732437230.353800535,0.025851676240563393,-0.04201507568359375,0.009764276444911957,-0.41614899039268494,0.001394524471834302,0.9026328325271606
1732437230.359660864,0.025851676240563393,-0.05692877620458603,0.012960068881511688,-0.37952789664268494,0.013357414864003658,0.9067832231521606
1732437230.364038944,0.02372114546597004,-0.0398845449090004,-0.001953631639480591,-0.35291656851768494,0.017751947045326233,0.9121543169021606
1732437230.369626284,0.008807443082332611,-0.0068613458424806595,-0.01686733588576317,-0.36927399039268494,0.014089836739003658,0.9477988481521606
1732437230.373875380,-0.002910465933382511,0.016574472188949585,-0.032846301794052124,-0.36219391226768494,-0.002023444278165698,0.9414511919021606
1732437230.379738569,-0.002910465933382511,0.027227118611335754,-0.03497683256864548,-0.36902984976768494,-0.020578131079673767,0.9329062700271606
1732437230.384107351,0.007742179557681084,0.02935764566063881,-0.024324186146259308,-0.39686188101768494,-0.019357427954673767,0.9202109575271606
1732437230.389913559,0.009872708469629288,0.024031326174736023,-0.01686733588576317,-0.44105133414268494,-0.006906257010996342,0.9058066606521606
1732437230.393972158,0.002415856346487999,0.015509210526943207,-0.011541012674570084,-0.45765289664268494,-0.007638678885996342,0.8816367387771606
1732437230.399643898,-0.005040994845330715,-0.0026002880185842514,-0.010475747287273407,-0.45130524039268494,-0.03156445920467377,0.8760215044021606
1732437230.403988361,-0.008236788213253021,-0.019644519314169884,-0.008345220237970352,-0.40613922476768494,-0.05964063107967377,0.8735800981521606
1732437230.409677744,0.0013505928218364716,-0.027101371437311172,-0.001953631639480591,-0.39344391226768494,-0.07135938107967377,0.9067832231521606
1732437230.413656235,0.014133766293525696,-0.02497084066271782,-0.0072799548506736755,-0.37000641226768494,-0.07892774045467377,0.9448691606521606
1732437230.419685125,0.029047468677163124,-0.007926610298454762,-0.013671543449163437,-0.34583649039268494,-0.07624219357967377,0.9475547075271606
1732437230.424520016,0.042895905673503876,0.026161853224039078,-0.0200631283223629,-0.36610016226768494,-0.03888867795467377,0.9448691606521606
1732437230.429640055,0.032243259251117706,0.04427134618163109,-0.04030315577983856,-0.39637359976768494,-0.001046881778165698,0.9338828325271606
1732437230.433905363,0.012003237381577492,0.03255344182252884,-0.05841264873743057,-0.42054352164268494,0.002371086971834302,0.9192343950271606
1732437230.439677477,0.020525353029370308,0.0389450266957283,-0.05095579847693443,-0.45154938101768494,0.011404289864003658,0.8884726762771606
1732437230.443984985,0.027982203289866447,0.05066293850541115,-0.029650509357452393,-0.5145376920700073,0.04656054079532623,0.8821250200271606
1732437230.449686289,0.002415856346487999,0.027227118611335754,-0.029650509357452393,-0.5045279264450073,0.04704882204532623,0.8528281450271606
1732437230.453669786,-0.013563110493123531,-0.011122403666377068,-0.0200631283223629,-0.5157583951950073,0.008962883614003658,0.8684531450271606
1732437230.459925890,0.0002853274345397949,-0.03136242926120758,0.014025337994098663,-0.5160025358200073,-0.004464850760996342,0.8704062700271606
1732437230.464154720,-0.01249784603714943,-0.05266771838068962,0.014025337994098663,-0.44349274039268494,-0.023019537329673767,0.8699179887771606
1732437230.469924927,-0.025281019508838654,-0.0675814226269722,0.006568484008312225,-0.43299469351768494,-0.07526563107967377,0.9228965044021606
1732437230.473819256,-0.008236788213253021,-0.04521086812019348,0.008699014782905579,-0.39246734976768494,-0.08234570920467377,0.9275351762771606
1732437230.479873419,0.007742179557681084,0.004856564104557037,-0.0008883699774742126,-0.38245758414268494,-0.05866406857967377,0.9206992387771606
1732437230.483926296,0.009872708469629288,0.03574923425912857,-0.02645471692085266,-0.40491852164268494,-0.05036328732967377,0.9158164262771606
1732437230.489570141,0.025851676240563393,0.03255344182252884,-0.027519982308149338,-0.44080719351768494,-0.024240240454673767,0.8953086137771606
1732437230.494044542,0.025851676240563393,-0.007926610298454762,-0.025389451533555984,-0.44471344351768494,0.024343743920326233,0.8696738481521606
1732437230.499639511,0.0002853274345397949,-0.05692877620458603,-0.03497683256864548,-0.43177399039268494,0.03801561892032623,0.8711386919021606
1732437230.504025221,0.002415856346487999,-0.06651616096496582,-0.0339115671813488,-0.42103180289268494,0.018972650170326233,0.8904258012771606
1732437230.509490252,0.018394822254776955,-0.030297163873910904,-0.018997862935066223,-0.42200836539268494,0.020193353295326233,0.9016562700271606
1732437230.513894558,0.014133766293525696,0.012313414365053177,-0.01686733588576317,-0.38148102164268494,0.03337694704532623,0.8611289262771606
1732437230.519596577,-0.009302052669227123,0.0250965878367424,-0.022193659096956253,-0.37049469351768494,0.015310539864003658,0.8455039262771606
1732437230.523622036,-0.016758903861045837,-0.015383461490273476,-0.013671543449163437,-0.39588531851768494,-0.03571484982967377,0.9033652544021606
1732437230.529169798,-0.011432581581175327,-0.06438562273979187,0.00550321489572525,-0.36683258414268494,-0.06550000607967377,0.9204550981521606
1732437230.533959627,-0.008236788213253021,-0.05692877620458603,0.009764276444911957,-0.34925445914268494,-0.08258984982967377,0.9224082231521606
1732437230.539795876,-0.0007799370214343071,-0.007926610298454762,0.006568484008312225,-0.37659820914268494,-0.09577344357967377,0.9521933794021606
1732437230.543794870,0.0034811217337846756,0.03148817643523216,-0.0008883699774742126,-0.37708649039268494,-0.11969922482967377,0.9548789262771606
1732437230.549897432,-0.007171523757278919,0.02829238399863243,-0.018997862935066223,-0.36805328726768494,-0.13874219357967377,0.9294883012771606
1732437230.553857327,0.0002853274345397949,0.009117621928453445,-0.03071577474474907,-0.41761383414268494,-0.15705274045467377,0.9534140825271606
1732437230.559809208,0.021590618416666985,0.010182887315750122,-0.028585243970155716,-0.42127594351768494,-0.13996289670467377,0.9321738481521606
1732437230.563844681,0.04076537489891052,0.03148817643523216,-0.027519982308149338,-0.45814117789268494,-0.11164258420467377,0.9126425981521606
1732437230.569694519,0.053548552095890045,0.04959766939282417,-0.032846301794052124,-0.46448883414268494,-0.08332227170467377,0.8794394731521606
1732437230.574118853,0.05780961364507675,0.03681449964642525,-0.0200631283223629,-0.49622711539268494,-0.03400586545467377,0.8801718950271606
1732437230.579638958,0.03756958246231079,-0.022840313613414764,-0.0200631283223629,-0.46473297476768494,-0.010324225760996342,0.8940879106521606
1732437230.583779573,0.020525353029370308,-0.07184247672557831,-0.018997862935066223,-0.40833649039268494,-0.04328320920467377,0.9192343950271606
1732437230.589579821,0.05674434453248978,-0.0398845449090004,0.0076337456703186035,-0.41175445914268494,-0.06598828732967377,0.9678183794021606
1732437230.593818188,0.06846226006746292,0.034683968871831894,0.03639588505029678,-0.40223297476768494,-0.004708991385996342,0.9243613481521606
1732437230.599687815,0.010937971994280815,0.051728200167417526,0.0076337456703186035,-0.44153961539268494,0.025564447045326233,0.9260703325271606
1732437230.604101419,-0.021019961684942245,0.02935764566063881,0.000176895409822464,-0.46448883414268494,-0.008371100760996342,0.9358359575271606
1732437230.609506130,0.015199029818177223,0.020835530012845993,0.02574324607849121,-0.48035797476768494,-0.015207038260996342,0.9026328325271606
1732437230.613833904,0.021590618416666985,0.01444394513964653,0.03639588505029678,-0.49207672476768494,0.020437493920326233,0.8662558794021606
1732437230.619493008,0.00561165064573288,0.02190079540014267,0.01615586131811142,-0.5147818326950073,0.017263665795326233,0.8557578325271606
1732437230.623720407,0.018394822254776955,0.04320608451962471,0.01935165375471115,-0.48865875601768494,0.005789055489003658,0.8044883012771606
1732437230.629686832,0.018394822254776955,0.04001029208302498,0.020416922867298126,-0.37000641226768494,0.026296868920326233,0.6968222856521606
1732437230.634092331,-0.005040994845330715,-0.04521086812019348,-0.004084162414073944,-0.38660797476768494,-0.028146490454673767,0.8242636919021606
1732437230.639826775,0.021590618416666985,-0.13362781703472137,0.003372691571712494,-0.19276031851768494,-0.06574414670467377,0.8123008012771606
1732437230.643777847,0.0791148990392685,-0.13149729371070862,0.02254745364189148,-0.23817047476768494,-0.04889844357967377,0.9841758012771606
1732437230.649849892,0.07698437571525574,-0.036688752472400665,0.003372691571712494,-0.21570953726768494,0.08049608767032623,0.9731894731521606
1732437230.653985023,-0.009302052669227123,0.08581666648387909,-0.10421901941299438,-0.12171540409326553,0.12737108767032623,0.8801718950271606
1732437230.659642220,0.006676914170384407,0.1870167851448059,-0.11380640417337418,-0.29407867789268494,0.08074022829532623,0.9458457231521606
1732437230.663726330,0.07165805250406265,0.21577893197536469,-0.0754568800330162,-0.36219391226768494,0.17156054079532623,0.8313437700271606
1732437230.669753551,0.032243259251117706,0.13268829882144928,-0.06480424106121063,-0.48914703726768494,0.26848435401916504,0.7986289262771606
1732437230.673900127,-0.06576106697320938,0.01444394513964653,-0.07652214914560318,-0.44178375601768494,0.26824021339416504,0.7353965044021606
1732437230.679863214,-0.0881316214799881,-0.047341395169496536,-0.053086329251527786,-0.43275055289268494,0.15300585329532623,0.8445273637771606
1732437230.684115410,-0.04658631235361099,-0.023905577138066292,0.004437953233718872,-0.39710602164268494,0.10149218142032623,0.9072715044021606
1732437230.689984322,-0.02634628489613533,0.024031326174736023,0.023612715303897858,-0.47694000601768494,0.10222460329532623,1.0723105669021606
1732437230.693680525,-0.06256527453660965,0.04214082285761833,0.017221130430698395,-0.42737945914268494,0.10124804079532623,1.0681601762771606
1732437230.699666977,-0.1381990611553192,0.05705452337861061,-0.05095579847693443,-0.32703766226768494,0.03606249392032623,0.9363242387771606
1732437230.704052448,-0.09878426790237427,0.135884091258049,-0.05095579847693443,-0.48133453726768494,-0.03620313107967377,0.9753867387771606
1732437230.709589005,-0.03380313515663147,0.20299574732780457,-0.005149427801370621,-0.6175650358200073,0.021658197045326233,0.9058066606521606
1732437230.713955641,-0.09132741391658783,0.16145044565200806,-0.02645471692085266,-0.6619986295700073,0.05852343142032623,0.7668906450271606
1732437230.719663143,-0.1381990611553192,0.05811978504061699,-0.057347387075424194,-0.6888540983200073,-0.05158399045467377,0.7974082231521606
1732437230.723755360,-0.08919689059257507,-0.04947192221879959,-0.011541012674570084,-0.6434439420700073,-0.15412305295467377,0.8777304887771606
1732437230.729654551,-0.024215754121541977,-0.1368236094713211,0.023612715303897858,-0.5062369108200073,-0.19440625607967377,0.8948203325271606
1732437230.734524965,-0.01569363847374916,-0.14534573256969452,0.01189480721950531,-0.42444977164268494,-0.22223828732967377,0.9482871294021606
1732437230.739356756,-0.02634628489613533,-0.04627612978219986,-0.032846301794052124,-0.34193024039268494,-0.27716994285583496,0.9441367387771606
1732437230.744062424,-0.005040994845330715,0.09646931290626526,-0.0711958259344101,-0.33216461539268494,-0.31965041160583496,0.9038535356521606
1732437230.749680519,0.042895905673503876,0.1646462380886078,-0.07226108759641647,-0.43934234976768494,-0.29938673973083496,0.9053183794021606
1732437230.753811836,0.03437379002571106,0.09114298224449158,-0.07332634925842285,-0.42274078726768494,-0.26325392723083496,0.7986289262771606
1732437230.759893656,0.01306850090622902,-0.05586351081728935,-0.07439161837100983,-0.45154938101768494,-0.30622267723083496,0.8457480669021606
1732437230.763781786,0.0418306440114975,-0.13362781703472137,-0.03710736334323883,-0.44593414664268494,-0.33088088035583496,0.9392539262771606
1732437230.769707918,0.07804963737726212,-0.08888670802116394,-0.005149427801370621,-0.41102203726768494,-0.27082228660583496,0.9392539262771606
1732437230.773852110,0.07804963737726212,0.030422911047935486,-0.006214689463376999,-0.42835602164268494,-0.21442578732967377,0.9473105669021606
1732437230.779783726,0.053548552095890045,0.11564406752586365,-0.009410485625267029,-0.47840484976768494,-0.19147656857967377,0.9165488481521606
1732437230.783995390,0.0418306440114975,0.11031773686408997,-0.004084162414073944,-0.5042837858200073,-0.18879102170467377,0.8801718950271606
1732437230.789887190,0.04822222888469696,0.03574923425912857,0.031069569289684296,-0.49061188101768494,-0.17438672482967377,0.8574668169021606
1732437230.793848515,0.06846226006746292,-0.050537191331386566,0.07368014752864838,-0.5279654264450073,-0.14679883420467377,0.9175254106521606
1732437230.799901724,0.06633172929286957,-0.08995197713375092,0.10350754857063293,-0.5018423795700073,-0.09284375607967377,0.9507285356521606
1732437230.803889751,0.05248329043388367,-0.04627612978219986,0.11735598742961884,-0.47205719351768494,-0.03400586545467377,0.9665976762771606
1732437230.809532166,0.038634851574897766,0.048532407730817795,0.10137702524662018,-0.46448883414268494,0.011892571114003658,0.9600058794021606
1732437230.813807726,0.05141802132129669,0.11244827508926392,0.08113700151443481,-0.47425445914268494,0.04533983767032623,0.9072715044021606
1732437230.819927931,0.05674434453248978,0.08262087404727936,0.0726148784160614,-0.5377310514450073,0.11980272829532623,0.8835898637771606
1732437230.823841572,0.04822222888469696,0.0250965878367424,0.03746115416288376,-0.5465201139450073,0.14470507204532623,0.8494101762771606
1732437230.829824209,0.06633172929286957,-0.021775048226118088,0.03320009261369705,-0.47889313101768494,0.12517382204532623,0.8025351762771606
1732437230.834832191,0.06846226006746292,-0.06438562273979187,0.027873769402503967,-0.47694000601768494,0.11516405642032623,0.8555136919021606
1732437230.839884996,0.050352759659290314,-0.05692877620458603,-0.004084162414073944,-0.39075836539268494,0.12004686892032623,0.8137656450271606
1732437230.843716383,0.04822222888469696,-0.005796080455183983,-0.013671543449163437,-0.38465484976768494,0.11858202517032623,0.8533164262771606
1732437230.849710703,0.05248329043388367,0.016574472188949585,-0.02325892075896263,-0.42982086539268494,0.12053515017032623,0.9238730669021606
1732437230.853798389,0.05780961364507675,0.009117621928453445,-0.025389451533555984,-0.39051422476768494,0.15422655642032623,0.8652793169021606
1732437230.859940767,0.05248329043388367,0.015509210526943207,-0.028585243970155716,-0.40052399039268494,0.20525194704532623,0.8496543169021606
1732437230.863842726,0.017329560592770576,0.027227118611335754,-0.046694740653038025,-0.44251617789268494,0.22868944704532623,0.8608847856521606
1732437230.869856358,-0.024215754121541977,0.03148817643523216,-0.05947791412472725,-0.48182281851768494,0.19890429079532623,0.8452597856521606
1732437230.873991251,-0.03593366593122482,0.04746714606881142,-0.04030315577983856,-0.5316275358200073,0.14494921267032623,0.8508750200271606
1732437230.879729271,-0.03273787349462509,0.048532407730817795,-0.009410485625267029,-0.5514029264450073,0.12297655642032623,0.8203574419021606
1732437230.883933067,-0.06150001287460327,0.018705002963542938,-0.0030188970267772675,-0.5421255826950073,0.11711718142032623,0.7700644731521606
1732437230.889736414,-0.07960950583219528,-0.026036106050014496,-0.0008883699774742126,-0.5577505826950073,0.06804491579532623,0.8137656450271606
1732437230.894010544,-0.05830422043800354,-0.06438562273979187,0.008699014782905579,-0.5167349576950073,0.023123040795326233,0.8430625200271606
1732437230.899797678,-0.03060734272003174,-0.08995197713375092,0.012960068881511688,-0.48963531851768494,0.008962883614003658,0.8831015825271606
1732437230.904099703,-0.04125998914241791,-0.08675618469715118,-0.014736805111169815,-0.43909820914268494,0.007253899239003658,0.8967734575271606
1732437230.909654856,-0.05936948210000992,-0.04201507568359375,-0.06480424106121063,-0.42493805289268494,-0.028634771704673767,0.9104453325271606
1732437230.913722277,-0.03593366593122482,0.0250965878367424,-0.08610952645540237,-0.47254547476768494,-0.06623242795467377,0.9136191606521606
1732437230.919696093,-0.014628374949097633,0.04533661529421806,-0.09037058055400848,-0.5011099576950073,-0.06818555295467377,0.8667441606521606
1732437230.923704863,-0.017824169248342514,0.0037912987172603607,-0.08717478811740875,-0.5301626920700073,-0.05988477170467377,0.8389121294021606
1732437230.929712057,-0.02634628489613533,-0.06012456864118576,-0.08291373401880264,-0.5123404264450073,-0.06916211545467377,0.8396445512771606
1732437230.933677197,-0.02634628489613533,-0.06012456864118576,-0.08291373401880264,-0.5123404264450073,-0.06916211545467377,0.8396445512771606
1732437230.939562082,-0.02315049059689045,-0.08782143890857697,-0.04030315577983856,-0.46717438101768494,-0.10309766232967377,0.9170371294021606
1732437230.943959475,-0.025281019508838654,-0.05266771838068962,-0.02645471692085266,-0.43592438101768494,-0.11969922482967377,0.9329062700271606
1732437230.949679613,-0.03060734272003174,-0.010057139210402966,-0.017932601273059845,-0.43470367789268494,-0.14557813107967377,0.9373008012771606
1732437230.953647614,-0.025281019508838654,0.019770268350839615,-0.001953631639480591,-0.45350250601768494,-0.13337109982967377,0.9128867387771606
1732437230.959683657,-0.039129458367824554,0.008052356541156769,-0.0030188970267772675,-0.43738922476768494,-0.15119336545467377,0.8923789262771606
1732437230.963936806,-0.027411548420786858,-0.021775048226118088,0.006568484008312225,-0.44446930289268494,-0.21735547482967377,0.9080039262771606
1732437230.969645500,0.010937971994280815,-0.029231898486614227,0.03746115416288376,-0.42420563101768494,-0.22126172482967377,0.8935996294021606
1732437230.973968983,0.010937971994280815,-0.029231898486614227,0.03746115416288376,-0.42420563101768494,-0.22126172482967377,0.8935996294021606
1732437230.979811430,-0.011432581581175327,-0.02497084066271782,0.012960068881511688,-0.36878570914268494,-0.22370313107967377,0.9216758012771606
1732437230.983913422,-0.002910465933382511,-0.013252932578325272,0.0012421607971191406,-0.36243805289268494,-0.23591016232967377,0.9622031450271606
1732437230.989973307,0.03756958246231079,0.024031326174736023,0.012960068881511688,-0.37025055289268494,-0.19440625607967377,0.9624472856521606
1732437230.993986130,0.05780961364507675,0.0527934692800045,0.009764276444911957,-0.40760406851768494,-0.11432813107967377,0.9499961137771606
1732437231.000057459,0.05141802132129669,0.07196822762489319,-0.014736805111169815,-0.42152008414268494,-0.06647656857967377,0.9021445512771606
1732437231.004110098,0.0556790828704834,0.09327352046966553,-0.017932601273059845,-0.46741852164268494,-0.04255078732967377,0.8765097856521606
1732437231.009929180,0.06420119851827621,0.10073037445545197,0.000176895409822464,-0.5350455045700073,-0.012277350760996342,0.8506308794021606
1732437231.013798475,0.05248329043388367,0.07196822762489319,0.01615586131811142,-0.5567740201950073,0.012380852364003658,0.8154746294021606
1732437231.019884109,0.01946008764207363,0.01444394513964653,0.027873769402503967,-0.5421255826950073,0.009939446114003658,0.7927695512771606
1732437231.023813248,0.0034811217337846756,-0.02497084066271782,0.035330623388290405,-0.5138052701950073,-0.019601568579673767,0.8159629106521606
1732437231.029742718,0.025851676240563393,-0.036688752472400665,0.0587664395570755,-0.49402984976768494,-0.027169927954673767,0.8660117387771606
1732437231.033889532,0.025851676240563393,-0.036688752472400665,0.0587664395570755,-0.49402984976768494,-0.027169927954673767,0.8660117387771606
1732437231.039778233,0.03330852836370468,-0.0281666349619627,0.03959168493747711,-0.42542633414268494,0.021414056420326233,0.9121543169021606
1732437231.043928385,0.03330852836370468,-0.0281666349619627,0.03959168493747711,-0.42542633414268494,0.021414056420326233,0.9121543169021606
1732437231.049658060,0.04076537489891052,0.08901245892047882,-0.027519982308149338,-0.45643219351768494,0.03533007204532623,0.8796836137771606
1732437231.053830862,0.04076537489891052,0.08901245892047882,-0.027519982308149338,-0.45643219351768494,0.03533007204532623,0.8796836137771606
1732437231.059969664,0.03437379002571106,0.04107555374503136,-0.03497683256864548,-0.5672720670700073,0.08659960329532623,0.8054648637771606
1732437231.063854218,0.03437379002571106,0.04107555374503136,-0.03497683256864548,-0.5672720670700073,0.08659960329532623,0.8054648637771606
1732437231.069537640,0.015199029818177223,-0.04521086812019348,-0.017932601273059845,-0.5050162076950073,0.05046679079532623,0.7949668169021606
1732437231.073880911,0.021590618416666985,-0.06332036852836609,-0.0030188970267772675,-0.49769195914268494,0.05437304079532623,0.8677207231521606
1732437231.079507589,0.02691694162786007,-0.06545089185237885,0.010829538106918335,-0.47498688101768494,0.07439257204532623,0.9180136919021606
1732437231.083705187,0.02691694162786007,-0.06545089185237885,0.010829538106918335,-0.47498688101768494,0.07439257204532623,0.9180136919021606
1732437231.089865923,-0.017824169248342514,-0.008991874754428864,-0.036042094230651855,-0.42591461539268494,0.09221483767032623,0.9119101762771606
1732437231.093924046,-0.01888943277299404,0.04533661529421806,-0.05202106386423111,-0.46375641226768494,0.08244921267032623,0.9070273637771606
1732437231.099570274,0.0002853274345397949,0.07303349673748016,-0.05415159463882446,-0.5096548795700073,0.06487108767032623,0.8706504106521606
1732437231.104286909,0.012003237381577492,0.04214082285761833,-0.028585243970155716,-0.5518912076950073,0.08074022829532623,0.8242636919021606
1732437231.109506130,-0.031672604382038116,-0.0398845449090004,-0.03071577474474907,-0.46790680289268494,0.08464647829532623,0.7905722856521606
1732437231.113976479,-0.07002212852239609,-0.11019200086593628,-0.05095579847693443,-0.40833649039268494,0.007498039864003658,0.8750449419021606
1732437231.119479179,-0.013563110493123531,-0.08675618469715118,-0.022193659096956253,-0.41370758414268494,-0.024728521704673767,0.9658652544021606
1732437231.123981953,0.0301127340644598,0.008052356541156769,-0.0008883699774742126,-0.39442047476768494,0.04802538454532623,0.9294883012771606
1732437231.129685879,-0.03273787349462509,0.0666418969631195,-0.0339115671813488,-0.39246734976768494,0.11076952517032623,0.8716269731521606
1732437231.133772373,-0.03273787349462509,0.0666418969631195,-0.0339115671813488,-0.39246734976768494,0.11076952517032623,0.8716269731521606
1732437231.139715195,-0.06150001287460327,0.037879761308431625,-0.08397899568080902,-0.41175445914268494,-0.07990430295467377,0.9111777544021606
1732437231.143683672,-0.06150001287460327,0.037879761308431625,-0.08397899568080902,-0.41175445914268494,-0.07990430295467377,0.9111777544021606
1732437231.149719954,-0.009302052669227123,0.06131558492779732,-0.029650509357452393,-0.5081900358200073,0.03655077517032623,0.7832480669021606
1732437231.154190302,-0.009302052669227123,0.06131558492779732,-0.029650509357452393,-0.5081900358200073,0.03655077517032623,0.7832480669021606
1732437231.159687281,-0.08600109070539474,0.04640187695622444,-0.04562947899103165,-0.5262564420700073,-0.15168164670467377,0.8227988481521606
1732437231.163771391,-0.08600109070539474,0.04640187695622444,-0.04562947899103165,-0.5262564420700073,-0.15168164670467377,0.8227988481521606
1732437231.169752836,-0.021019961684942245,-0.019644519314169884,0.010829538106918335,-0.5138052701950073,-0.13410352170467377,0.8257285356521606
1732437231.174115181,-0.021019961684942245,-0.019644519314169884,0.010829538106918335,-0.5138052701950073,-0.13410352170467377,0.8257285356521606
1732437231.179719925,-0.04658631235361099,-0.03242769092321396,-0.017932601273059845,-0.45521149039268494,-0.16999219357967377,0.9182578325271606
1732437231.183796644,-0.04658631235361099,-0.03242769092321396,-0.017932601273059845,-0.45521149039268494,-0.16999219357967377,0.9182578325271606
1732437231.189671278,0.025851676240563393,0.08794718980789185,-0.029650509357452393,-0.5584830045700073,-0.11213086545467377,0.9106894731521606
1732437231.193785906,0.025851676240563393,0.08794718980789185,-0.029650509357452393,-0.5584830045700073,-0.11213086545467377,0.9106894731521606
1732437231.199638128,-0.027411548420786858,0.0527934692800045,-0.049890533089637756,-0.6554068326950073,-0.10163281857967377,0.8066855669021606
1732437231.204591751,-0.007171523757278919,0.0016607698053121567,-0.024324186146259308,-0.6331900358200073,-0.13385938107967377,0.7773886919021606
1732437231.209933281,0.015199029818177223,-0.07184247672557831,0.01615586131811142,-0.6283072233200073,-0.12897656857967377,0.8310996294021606
1732437231.214030266,0.015199029818177223,-0.07184247672557831,0.01615586131811142,-0.6283072233200073,-0.12897656857967377,0.8310996294021606
1732437231.219629526,-0.007171523757278919,-0.1421499401330948,0.023612715303897858,-0.43128570914268494,-0.11506055295467377,0.8850547075271606
1732437231.223885059,-0.007171523757278919,-0.1421499401330948,0.023612715303897858,-0.43128570914268494,-0.11506055295467377,0.8850547075271606
1732437231.230034351,0.027982203289866447,-0.019644519314169884,-0.0008883699774742126,-0.37855133414268494,-0.10871289670467377,0.9697715044021606
1732437231.233863831,0.027982203289866447,-0.019644519314169884,-0.0008883699774742126,-0.37855133414268494,-0.10871289670467377,0.9697715044021606
1732437231.239828110,0.03756958246231079,0.05811978504061699,-0.03710736334323883,-0.46912750601768494,-0.04865430295467377,0.8794394731521606
1732437231.243906975,0.03756958246231079,0.05811978504061699,-0.03710736334323883,-0.46912750601768494,-0.04865430295467377,0.8794394731521606
1732437231.249557972,0.03437379002571106,0.0112481489777565,-0.018997862935066223,-0.5035513639450073,-0.04938672482967377,0.8032675981521606
1732437231.253860474,0.03437379002571106,0.0112481489777565,-0.018997862935066223,-0.5035513639450073,-0.04938672482967377,0.8032675981521606
1732437231.259755373,0.032243259251117706,-0.08356039226055145,0.031069569289684296,-0.43226227164268494,-0.05671094357967377,0.8503867387771606
1732437231.263865948,0.032243259251117706,-0.08356039226055145,0.031069569289684296,-0.43226227164268494,-0.05671094357967377,0.8503867387771606
1732437231.269876957,0.021590618416666985,-0.029231898486614227,0.049179062247276306,-0.39246734976768494,-0.006417975760996342,0.9211875200271606
1732437231.273785353,0.021590618416666985,-0.029231898486614227,0.049179062247276306,-0.39246734976768494,-0.006417975760996342,0.9211875200271606
1732437231.279593945,0.020525353029370308,0.0762292891740799,0.03000430017709732,-0.45765289664268494,0.004812492989003658,0.8962851762771606
1732437231.284101486,0.015199029818177223,0.07090295851230621,0.023612715303897858,-0.45765289664268494,0.004812492989003658,0.8962851762771606
1732437231.289968014,0.00561165064573288,0.02829238399863243,0.02574324607849121,-0.5272330045700073,-0.018869146704673767,0.8403769731521606
1732437231.293688059,0.00561165064573288,0.02829238399863243,0.02574324607849121,-0.5272330045700073,-0.018869146704673767,0.8403769731521606
1732437231.299579144,0.020525353029370308,-0.033492956310510635,0.0449180081486702,-0.49915680289268494,-0.07868359982967377,0.8279258012771606
1732437231.304860830,0.025851676240563393,-0.04627612978219986,0.04704853147268295,-0.48255524039268494,-0.09406445920467377,0.8533164262771606
1732437231.309533596,0.025851676240563393,-0.04201507568359375,0.03746115416288376,-0.44300445914268494,-0.07258008420467377,0.8503867387771606
1732437231.313822269,0.025851676240563393,-0.04201507568359375,0.03746115416288376,-0.44300445914268494,-0.07258008420467377,0.8503867387771606
1732437231.319762230,0.021590618416666985,0.005921827629208565,-0.01580207049846649,-0.43177399039268494,-0.04645703732967377,0.9028769731521606
1732437231.323786020,0.021590618416666985,0.005921827629208565,-0.01580207049846649,-0.43177399039268494,-0.04645703732967377,0.9028769731521606
1732437231.329716444,0.06207066774368286,0.03255344182252884,-0.0200631283223629,-0.49402984976768494,0.05949999392032623,0.8655234575271606
1732437231.333736658,0.06207066774368286,0.03255344182252884,-0.0200631283223629,-0.49402984976768494,0.05949999392032623,0.8655234575271606
1732437231.339842319,0.03756958246231079,-0.019644519314169884,-0.03071577474474907,-0.5382193326950073,0.10198046267032623,0.8267050981521606
1732437231.343531132,0.03756958246231079,-0.019644519314169884,-0.03071577474474907,-0.5382193326950073,0.10198046267032623,0.8267050981521606
1732437231.349543095,0.007742179557681084,-0.03455822169780731,-0.0200631283223629,-0.49988922476768494,0.08098436892032623,0.7895957231521606
1732437231.353834391,0.007742179557681084,-0.03455822169780731,-0.0200631283223629,-0.49988922476768494,0.08098436892032623,0.7895957231521606
1732437231.359861135,-0.010367317125201225,-0.04947192221879959,0.004437953233718872,-0.44129547476768494,0.027517572045326233,0.8232871294021606
1732437231.363746881,-0.010367317125201225,-0.04947192221879959,0.004437953233718872,-0.44129547476768494,0.027517572045326233,0.8232871294021606
1732437231.369724512,-0.021019961684942245,-0.0814298540353775,0.003372691571712494,-0.42371734976768494,0.012380852364003658,0.9514609575271606
1732437231.373774767,-0.021019961684942245,-0.0814298540353775,0.003372691571712494,-0.42371734976768494,0.012380852364003658,0.9514609575271606
1732437231.379624128,0.01946008764207363,-0.011122403666377068,-0.010475747287273407,-0.39002594351768494,0.020437493920326233,0.9453574419021606
1732437231.383731604,0.01946008764207363,-0.011122403666377068,-0.010475747287273407,-0.39002594351768494,0.020437493920326233,0.9453574419021606
1732437231.389720917,-0.017824169248342514,0.09327352046966553,-0.05521685630083084,-0.5052603483200073,-0.021066412329673767,0.8950644731521606
1732437231.394263983,-0.017824169248342514,0.09327352046966553,-0.05521685630083084,-0.5052603483200073,-0.021066412329673767,0.8950644731521606
1732437231.399722338,-0.02954207733273506,0.024031326174736023,-0.04030315577983856,-0.5379751920700073,-0.04352734982967377,0.8069297075271606
1732437231.403685570,-0.02954207733273506,0.024031326174736023,-0.04030315577983856,-0.5379751920700073,-0.04352734982967377,0.8069297075271606
1732437231.409674883,0.004546385258436203,-0.09421303868293762,0.0076337456703186035,-0.47718414664268494,-0.06965039670467377,0.8914023637771606
1732437231.413763285,0.004546385258436203,-0.09421303868293762,0.0076337456703186035,-0.47718414664268494,-0.06965039670467377,0.8914023637771606
1732437231.419974804,-0.0018452014774084091,-0.030297163873910904,-0.03817262500524521,-0.37269195914268494,-0.05256055295467377,0.9617148637771606
1732437231.423706055,-0.0018452014774084091,-0.030297163873910904,-0.03817262500524521,-0.37269195914268494,-0.05256055295467377,0.9617148637771606
1732437231.429716587,0.017329560592770576,0.17529888451099396,-0.08184847235679626,-0.46790680289268494,-0.024240240454673767,0.8276816606521606
1732437231.434036016,0.017329560592770576,0.17529888451099396,-0.08184847235679626,-0.46790680289268494,-0.024240240454673767,0.8276816606521606
1732437231.439959764,-0.013563110493123531,0.06344610452651978,-0.06373897194862366,-0.6185415983200073,-0.05085156857967377,0.7546836137771606
1732437231.443918705,-0.013563110493123531,0.06344610452651978,-0.06373897194862366,-0.6185415983200073,-0.05085156857967377,0.7546836137771606
1732437231.449499846,0.02691694162786007,-0.12190991640090942,0.04385273903608322,-0.5951040983200073,-0.04987500607967377,0.7842246294021606
1732437231.454006195,0.02691694162786007,-0.12190991640090942,0.04385273903608322,-0.5951040983200073,-0.04987500607967377,0.7842246294021606
1732437231.460021257,-0.049782104790210724,-0.06332036852836609,0.021482184529304504,-0.5040396451950073,-0.07209180295467377,0.9062949419021606
1732437231.463903666,-0.049782104790210724,-0.06332036852836609,0.021482184529304504,-0.5040396451950073,-0.07209180295467377,0.9062949419021606
1732437231.469767570,-0.002910465933382511,0.04001029208302498,0.03000430017709732,-0.5330923795700073,-0.06769727170467377,0.8987265825271606
1732437231.474098206,-0.002910465933382511,0.04001029208302498,0.03000430017709732,-0.5330923795700073,-0.06769727170467377,0.8987265825271606
1732437231.479848385,-0.01249784603714943,-0.026036106050014496,0.012960068881511688,-0.5721548795700073,-0.06891797482967377,0.8193808794021606
1732437231.483629942,-0.01249784603714943,-0.026036106050014496,0.012960068881511688,-0.5721548795700073,-0.06891797482967377,0.8193808794021606
1732437231.489833117,0.009872708469629288,-0.07610353827476501,0.02574324607849121,-0.5560415983200073,-0.09723828732967377,0.8284140825271606
1732437231.494045734,0.009872708469629288,-0.07610353827476501,0.02574324607849121,-0.5560415983200073,-0.09723828732967377,0.8284140825271606
1732437231.499909878,0.0002853274345397949,-0.10806147754192352,0.017221130430698395,-0.45081695914268494,-0.15216992795467377,0.8899375200271606
1732437231.504018068,0.0002853274345397949,-0.10806147754192352,0.017221130430698395,-0.45081695914268494,-0.15216992795467377,0.8899375200271606
1732437231.509607792,0.027982203289866447,-0.07716879993677139,0.009764276444911957,-0.37000641226768494,-0.11115430295467377,0.9426718950271606
1732437231.513857126,0.027982203289866447,-0.07716879993677139,0.009764276444911957,-0.37000641226768494,-0.11115430295467377,0.9426718950271606
1732437231.519590139,0.042895905673503876,0.013378679752349854,-0.01686733588576317,-0.41346344351768494,-0.029123052954673767,0.9001914262771606
1732437231.523883581,0.042895905673503876,0.013378679752349854,-0.01686733588576317,-0.41346344351768494,-0.029123052954673767,0.9001914262771606
1732437231.529651880,0.0162642952054739,0.02935764566063881,-0.03817262500524521,-0.46912750601768494,0.017507806420326233,0.8933554887771606
1732437231.533962250,0.0162642952054739,0.02935764566063881,-0.03817262500524521,-0.46912750601768494,0.017507806420326233,0.8933554887771606
1732437231.539616585,0.06100540608167648,-0.08036459982395172,0.0076337456703186035,-0.40980133414268494,0.05217577517032623,0.9739218950271606
1732437231.543978453,0.06100540608167648,-0.08036459982395172,0.0076337456703186035,-0.40980133414268494,0.05217577517032623,0.9739218950271606
1732437231.549620152,0.04076537489891052,0.03148817643523216,-0.02325892075896263,-0.37415680289268494,0.07976366579532623,0.9661093950271606
1732437231.554091215,0.04076537489891052,0.03148817643523216,-0.02325892075896263,-0.37415680289268494,0.07976366579532623,0.9661093950271606
1732437231.559531212,-0.03806419298052788,0.20832207798957825,-0.0711958259344101,-0.43690094351768494,0.11540819704532623,0.7590781450271606
1732437231.563956261,-0.03806419298052788,0.20832207798957825,-0.0711958259344101,-0.43690094351768494,0.11540819704532623,0.7590781450271606
1732437231.569794893,-0.009302052669227123,0.03361870348453522,-0.009410485625267029,-0.6104849576950073,0.09343554079532623,0.7849570512771606
1732437231.574084759,-0.009302052669227123,0.03361870348453522,-0.009410485625267029,-0.6104849576950073,0.09343554079532623,0.7849570512771606
1732437231.579604626,-0.021019961684942245,-0.07290774583816528,0.020416922867298126,-0.5589712858200073,0.10075975954532623,0.7744590044021606
1732437231.583823681,-0.021019961684942245,-0.07290774583816528,0.020416922867298126,-0.5589712858200073,0.10075975954532623,0.7744590044021606
1732437231.589824677,-0.06682633608579636,0.048532407730817795,-0.018997862935066223,-0.5806998014450073,0.001150383846834302,0.8081504106521606
1732437231.593863487,-0.06682633608579636,0.048532407730817795,-0.018997862935066223,-0.5806998014450073,0.001150383846834302,0.8081504106521606
1732437231.599909067,-0.049782104790210724,0.0112481489777565,-0.0200631283223629,-0.6195181608200073,-0.09870313107967377,0.7585898637771606
1732437231.603788853,-0.049782104790210724,0.0112481489777565,-0.0200631283223629,-0.6195181608200073,-0.09870313107967377,0.7585898637771606
1732437231.609645605,-0.009302052669227123,-0.10699620842933655,0.00550321489572525,-0.6344107389450073,-0.10480664670467377,0.7622519731521606
1732437231.613953352,-0.009302052669227123,-0.10699620842933655,0.00550321489572525,-0.6344107389450073,-0.10480664670467377,0.7622519731521606
1732437231.619933367,0.0002853274345397949,-0.10486568510532379,-0.01686733588576317,-0.6073111295700073,-0.07087109982967377,0.7930136919021606
1732437231.623833895,0.0002853274345397949,-0.10486568510532379,-0.01686733588576317,-0.6073111295700073,-0.07087109982967377,0.7930136919021606
1732437231.629948378,-0.017824169248342514,-0.1368236094713211,-0.06800003349781036,-0.5318716764450073,-0.14679883420467377,0.8826133012771606
1732437231.633804083,-0.017824169248342514,-0.1368236094713211,-0.06800003349781036,-0.5318716764450073,-0.14679883420467377,0.8826133012771606
1732437231.639915943,0.039700113236904144,-0.11125726997852325,-0.0477600060403347,-0.49818024039268494,-0.10749219357967377,0.8928672075271606
1732437231.643969297,0.039700113236904144,-0.11125726997852325,-0.0477600060403347,-0.49818024039268494,-0.10749219357967377,0.8928672075271606
1732437231.649746180,0.029047468677163124,-0.06864668428897858,-0.036042094230651855,-0.5536001920700073,-0.10407422482967377,0.9263144731521606
1732437231.653742552,0.029047468677163124,-0.06864668428897858,-0.036042094230651855,-0.5536001920700073,-0.10407422482967377,0.9263144731521606
1732437231.659737110,-0.016758903861045837,-0.1091267317533493,-0.001953631639480591,-0.49891266226768494,-0.10163281857967377,0.8386679887771606
1732437231.663982391,-0.016758903861045837,-0.1091267317533493,-0.001953631639480591,-0.49891266226768494,-0.10163281857967377,0.8386679887771606
1732437231.669651508,-0.01888943277299404,-0.14428046345710754,0.06196223944425583,-0.43421539664268494,-0.14557813107967377,0.9404746294021606
1732437231.673830509,-0.01888943277299404,-0.14428046345710754,0.06196223944425583,-0.43421539664268494,-0.14557813107967377,0.9404746294021606
1732437231.679888964,0.014133766293525696,-0.1368236094713211,0.08326752483844757,-0.30530914664268494,-0.15754102170467377,1.0395957231521606
1732437231.684167624,0.014133766293525696,-0.1368236094713211,0.08326752483844757,-0.30530914664268494,-0.15754102170467377,1.0395957231521606
1732437231.689862728,0.0556790828704834,-0.0281666349619627,0.027873769402503967,-0.19569000601768494,-0.13141797482967377,1.0129843950271606
1732437231.694170713,0.0556790828704834,-0.0281666349619627,0.027873769402503967,-0.19569000601768494,-0.13141797482967377,1.0129843950271606
1732437231.699651480,0.053548552095890045,0.12629671394824982,-0.046694740653038025,-0.32117828726768494,-0.08551953732967377,0.9534140825271606
1732437231.704383850,0.053548552095890045,0.12629671394824982,-0.046694740653038025,-0.32117828726768494,-0.08551953732967377,0.9534140825271606
1732437231.709680319,0.08657175302505493,0.11564406752586365,-0.03071577474474907,-0.46522125601768494,-0.008615241385996342,0.8613730669021606
1732437231.714479208,0.08657175302505493,0.11564406752586365,-0.03071577474474907,-0.46522125601768494,-0.008615241385996342,0.8613730669021606
1732437231.719530106,0.0791148990392685,0.0666418969631195,-0.011541012674570084,-0.49451813101768494,0.07561327517032623,0.8066855669021606
1732437231.723766565,0.04076537489891052,0.027227118611335754,-0.009410485625267029,-0.5223501920700073,0.12517382204532623,0.8088828325271606
1732437231.729762077,0.039700113236904144,0.07303349673748016,0.023612715303897858,-0.5824087858200073,0.16448046267032623,0.8057090044021606
1732437231.733677626,0.039700113236904144,0.07303349673748016,0.023612715303897858,-0.5824087858200073,0.16448046267032623,0.8057090044021606
1732437231.739875078,-0.04019472002983093,0.059185054153203964,0.009764276444911957,-0.5953482389450073,0.10344530642032623,0.7710410356521606
1732437231.744132757,-0.04019472002983093,0.059185054153203964,0.009764276444911957,-0.5953482389450073,0.10344530642032623,0.7710410356521606
1732437231.749914408,-0.0007799370214343071,-0.057994041591882706,0.06302750110626221,-0.5811880826950073,-0.04792188107967377,0.8523398637771606
1732437231.754861355,0.009872708469629288,-0.054798245429992676,0.06728856265544891,-0.5357779264450073,-0.028146490454673767,0.8447715044021606
1732437231.759377956,0.009872708469629288,-0.054798245429992676,0.06728856265544891,-0.5357779264450073,-0.028146490454673767,0.8447715044021606
1732437231.763974905,-0.013563110493123531,-0.0281666349619627,0.03639588505029678,-0.5350455045700073,-0.04450391232967377,0.8640586137771606
1732437231.769806862,-0.01249784603714943,0.020835530012845993,0.008699014782905579,-0.5140494108200073,-0.05353711545467377,0.8357383012771606
1732437231.773935795,0.0013505928218364716,0.05705452337861061,-0.008345220237970352,-0.5443228483200073,-0.029611334204673767,0.8032675981521606
1732437231.779530048,-0.008236788213253021,-0.03136242926120758,-0.039237890392541885,-0.6068228483200073,-0.012765632010996342,0.8110800981521606
1732437231.783867836,-0.008236788213253021,-0.03136242926120758,-0.039237890392541885,-0.6068228483200073,-0.012765632010996342,0.8110800981521606
1732437231.789715052,0.03650432080030441,-0.11125726997852325,-0.004084162414073944,-0.5350455045700073,0.013357414864003658,0.8401328325271606
1732437231.793764353,0.03650432080030441,-0.11125726997852325,-0.004084162414073944,-0.5350455045700073,0.013357414864003658,0.8401328325271606
1732437231.799530268,-0.006106259301304817,-0.05905930697917938,-0.04030315577983856,-0.46009430289268494,0.017019525170326233,0.8528281450271606
1732437231.804031372,-0.006106259301304817,-0.05905930697917938,-0.04030315577983856,-0.46009430289268494,0.017019525170326233,0.8528281450271606
1732437231.809771776,0.0034811217337846756,-0.029231898486614227,-0.04030315577983856,-0.46448883414268494,-0.023996099829673767,0.8928672075271606
1732437231.813759804,0.0034811217337846756,-0.029231898486614227,-0.04030315577983856,-0.45057281851768494,-0.05256055295467377,0.8928672075271606
1732437231.819982529,0.0162642952054739,-0.04947192221879959,-0.03071577474474907,-0.45008453726768494,-0.07380078732967377,0.9006797075271606
1732437231.823818445,0.01946008764207363,-0.06971195340156555,-0.018997862935066223,-0.44764313101768494,-0.06769727170467377,0.9028769731521606
1732437231.829810858,0.0002853274345397949,-0.06651616096496582,-0.02645471692085266,-0.43323883414268494,-0.05182813107967377,0.8899375200271606
1732437231.833765268,-0.011432581581175327,-0.027101371437311172,-0.0339115671813488,-0.44544586539268494,-0.05671094357967377,0.8860312700271606
1732437231.839784622,0.00561165064573288,0.027227118611335754,-0.03071577474474907,-0.48084625601768494,-0.05719922482967377,0.8857871294021606
1732437231.843855381,0.017329560592770576,0.04001029208302498,-0.018997862935066223,-0.49183258414268494,-0.030587896704673767,0.8564902544021606
1732437231.849573135,0.002415856346487999,-0.014318197034299374,-0.018997862935066223,-0.47669586539268494,-0.017404302954673767,0.8498984575271606
1732437231.853911638,-0.005040994845330715,-0.07716879993677139,-0.018997862935066223,-0.45765289664268494,-0.04767774045467377,0.8928672075271606
1732437231.859901667,0.015199029818177223,-0.021775048226118088,0.000176895409822464,-0.44251617789268494,-0.06012891232967377,0.9226523637771606
1732437231.863700628,0.015199029818177223,-0.021775048226118088,0.000176895409822464,-0.41932281851768494,-0.04181836545467377,0.8962851762771606
1732437231.869569540,-0.010367317125201225,0.048532407730817795,-0.02645471692085266,-0.45081695914268494,-0.06379102170467377,0.8992148637771606
1732437231.873893261,-0.005040994845330715,0.07516402006149292,-0.027519982308149338,-0.47205719351768494,-0.09894727170467377,0.8896933794021606
1732437231.879665613,0.020525353029370308,0.04214082285761833,-0.009410485625267029,-0.48182281851768494,-0.09626172482967377,0.8567343950271606
1732437231.884030104,0.02372114546597004,-0.016448725014925003,-0.0030188970267772675,-0.49549469351768494,-0.07184766232967377,0.8445273637771606
1732437231.889755249,0.0162642952054739,-0.03881927952170372,0.002307422459125519,-0.49500641226768494,-0.04914258420467377,0.8384238481521606
1732437231.893941641,0.008807443082332611,-0.011122403666377068,0.002307422459125519,-0.5147818326950073,-0.03205274045467377,0.8706504106521606
1732437231.899769306,0.0013505928218364716,0.02829238399863243,-0.0030188970267772675,-0.49134430289268494,-0.019113287329673767,0.8545371294021606
1732437231.904280663,0.00561165064573288,0.04107555374503136,-0.009410485625267029,-0.5040396451950073,-0.023996099829673767,0.8474570512771606
1732437231.909914494,0.017329560592770576,0.009117621928453445,-0.0030188970267772675,-0.5023306608200073,-0.021554693579673767,0.8467246294021606
1732437231.913950205,0.0162642952054739,-0.036688752472400665,-0.0008883699774742126,-0.48182281851768494,-0.015695318579673767,0.8496543169021606
1732437231.919979811,0.017329560592770576,-0.04627612978219986,-0.005149427801370621,-0.47230133414268494,-0.027169927954673767,0.8728476762771606
1732437231.924093008,0.021590618416666985,-0.007926610298454762,-0.0072799548506736755,-0.47816070914268494,-0.028634771704673767,0.8760215044021606
1732437231.929749012,0.010937971994280815,0.03681449964642525,-0.01580207049846649,-0.5069693326950073,-0.020578131079673767,0.8704062700271606
1732437231.934176445,-0.003975730389356613,0.04640187695622444,-0.02645471692085266,-0.5323599576950073,-0.030832037329673767,0.8560019731521606
1732437231.939924479,0.007742179557681084,0.009117621928453445,-0.0200631283223629,-0.5445669889450073,-0.05231641232967377,0.8518515825271606
1732437231.944005013,0.0301127340644598,-0.04201507568359375,-0.0030188970267772675,-0.5335806608200073,-0.04450391232967377,0.8547812700271606
1732437231.949687004,0.03437379002571106,-0.06651616096496582,0.000176895409822464,-0.5045279264450073,-0.017648443579673767,0.8562461137771606
1732437231.953973770,0.021590618416666985,-0.04521086812019348,-0.010475747287273407,-0.48768219351768494,-7.031930726952851e-05,0.8730918169021606
1732437231.958770514,0.008807443082332611,0.006987093016505241,-0.022193659096956253,-0.48328766226768494,0.009695305489003658,0.8701621294021606
1732437231.964027166,0.0034811217337846756,0.04320608451962471,-0.027519982308149338,-0.48792633414268494,0.019216790795326233,0.8550254106521606
1732437231.969678879,0.004546385258436203,0.026161853224039078,-0.018997862935066223,-0.5179556608200073,0.028249993920326233,0.8503867387771606
1732437231.974200010,0.008807443082332611,-0.03242769092321396,-0.008345220237970352,-0.5108755826950073,0.030203118920326233,0.8523398637771606
1732437231.980042696,0.006676914170384407,-0.08036459982395172,0.002307422459125519,-0.47938141226768494,0.023123040795326233,0.8635703325271606
1732437231.983762264,0.0034811217337846756,-0.0675814226269722,0.002307422459125519,-0.44617828726768494,0.011892571114003658,0.8633261919021606
1732437231.989763260,-0.01249784603714943,-0.013252932578325272,-0.011541012674570084,-0.45521149039268494,-0.006417975760996342,0.8774863481521606
1732437231.993934155,-0.02634628489613533,0.030422911047935486,-0.024324186146259308,-0.46619781851768494,-0.03840039670467377,0.8826133012771606
1732437231.999672413,-0.017824169248342514,0.03681449964642525,-0.02325892075896263,-0.48817047476768494,-0.07135938107967377,0.8835898637771606
1732437232.004436255,0.00561165064573288,0.005921827629208565,-0.01260627806186676,-0.49402984976768494,-0.08551953732967377,0.8628379106521606
1732437232.009488344,0.0162642952054739,-0.03881927952170372,-0.008345220237970352,-0.47986969351768494,-0.08381055295467377,0.8630820512771606
1732437232.013839245,0.0162642952054739,-0.05586351081728935,-0.008345220237970352,-0.46570953726768494,-0.07746289670467377,0.8711386919021606
1732437232.019593477,0.009872708469629288,-0.019644519314169884,-0.022193659096956253,-0.44569000601768494,-0.06574414670467377,0.8694297075271606
1732437232.024217367,0.006676914170384407,0.04001029208302498,-0.0339115671813488,-0.45618805289268494,-0.06208203732967377,0.8740683794021606
1732437232.029674292,0.006676914170384407,0.06557664275169373,-0.03497683256864548,-0.49158844351768494,-0.05085156857967377,0.8589316606521606
1732437232.033833981,0.008807443082332611,0.03574923425912857,-0.021128393709659576,-0.5142935514450073,-0.025705084204673767,0.8486777544021606
1732437232.039831638,0.015199029818177223,-0.027101371437311172,-0.0030188970267772675,-0.5218619108200073,-0.005441413260996342,0.8594199419021606
1732437232.043901205,0.021590618416666985,-0.0675814226269722,0.01189480721950531,-0.5186880826950073,0.004568352364003658,0.8757773637771606
1732437232.049865484,0.0162642952054739,-0.05586351081728935,0.015090599656105042,-0.49280914664268494,0.010427727364003658,0.8750449419021606
1732437232.053901196,-0.008236788213253021,-0.0026002880185842514,-0.0030188970267772675,-0.48011383414268494,-0.004220710135996342,0.8657675981521606
1732437232.059572935,-0.025281019508838654,0.04959766939282417,-0.01686733588576317,-0.49305328726768494,-0.04499219357967377,0.8613730669021606
1732437232.063899040,-0.016758903861045837,0.05492399260401726,-0.011541012674570084,-0.5247915983200073,-0.08332227170467377,0.8606406450271606
1732437232.069592714,0.00561165064573288,0.0037912987172603607,0.009764276444911957,-0.5326040983200073,-0.09919141232967377,0.8506308794021606
1732437232.073995352,0.0162642952054739,-0.06971195340156555,0.020416922867298126,-0.49158844351768494,-0.10505078732967377,0.8503867387771606
1732437232.079579830,0.021590618416666985,-0.10806147754192352,0.020416922867298126,-0.45325836539268494,-0.10724805295467377,0.8865195512771606
1732437232.083860874,0.032243259251117706,-0.07716879993677139,0.01189480721950531,-0.42225250601768494,-0.09772656857967377,0.9167929887771606
1732437232.089906216,0.027982203289866447,-0.00046975910663604736,-0.008345220237970352,-0.39515289664268494,-0.06769727170467377,0.9058066606521606
1732437232.093984604,0.0162642952054739,0.06344610452651978,-0.03071577474474907,-0.43323883414268494,-0.05671094357967377,0.8989707231521606
1732437232.099691629,0.017329560592770576,0.07516402006149292,-0.031781040132045746,-0.46180328726768494,-0.04035352170467377,0.8613730669021606
1732437232.104040861,0.0301127340644598,0.03148817643523216,-0.013671543449163437,-0.5062369108200073,-0.014230475760996342,0.8567343950271606
1732437232.109833241,0.0418306440114975,-0.03455822169780731,0.0076337456703186035,-0.49573883414268494,0.021414056420326233,0.8369590044021606
1732437232.113747597,0.032243259251117706,-0.07184247672557831,0.017221130430698395,-0.47864899039268494,0.03899218142032623,0.8560019731521606
1732437232.119882345,0.017329560592770576,-0.05586351081728935,0.015090599656105042,-0.44715484976768494,0.030935540795326233,0.8743125200271606
1732437232.124133587,0.004546385258436203,-0.0026002880185842514,0.003372691571712494,-0.42933258414268494,0.009207024239003658,0.8906699419021606
1732437232.129598141,-0.002910465933382511,0.04533661529421806,-0.0072799548506736755,-0.42811188101768494,-0.019601568579673767,0.8906699419021606
1732437232.134084702,-0.0007799370214343071,0.04533661529421806,-0.010475747287273407,-0.44764313101768494,-0.04499219357967377,0.8967734575271606
1732437232.139727116,0.010937971994280815,0.008052356541156769,-0.0030188970267772675,-0.46155914664268494,-0.05378125607967377,0.9009238481521606
1732437232.143748045,0.024786410853266716,-0.023905577138066292,0.004437953233718872,-0.45057281851768494,-0.04938672482967377,0.8879843950271606
1732437232.149752617,0.031177999451756477,-0.02070978283882141,-0.001953631639480591,-0.44202789664268494,-0.03400586545467377,0.8865195512771606
1732437232.154124975,0.025851676240563393,0.016574472188949585,-0.013671543449163437,-0.45643219351768494,-0.013009772635996342,0.8945761919021606
1732437232.159827232,0.010937971994280815,0.051728200167417526,-0.027519982308149338,-0.46473297476768494,0.000906243221834302,0.8874961137771606
1732437232.163970709,0.0034811217337846756,0.06983770430088043,-0.029650509357452393,-0.48231109976768494,0.005056633614003658,0.8647910356521606
1732437232.169952393,0.007742179557681084,0.06451137363910675,-0.01580207049846649,-0.5059927701950073,0.022878900170326233,0.8459922075271606
1732437232.173984289,0.017329560592770576,0.03681449964642525,0.0076337456703186035,-0.5272330045700073,0.04314257204532623,0.8459922075271606
1732437232.179817677,0.012003237381577492,-0.011122403666377068,0.024677976965904236,-0.5123404264450073,0.05974413454532623,0.8425742387771606
1732437232.183725119,-0.008236788213253021,-0.03562348708510399,0.02574324607849121,-0.47669586539268494,0.05583788454532623,0.8386679887771606
1732437232.189726830,-0.02315049059689045,-0.02497084066271782,0.018286392092704773,-0.46400055289268494,0.019216790795326233,0.8765097856521606
1732437232.194103479,-0.02634628489613533,0.0005955062806606293,0.0012421607971191406,-0.43934234976768494,-0.03278516232967377,0.9087363481521606
1732437232.200010061,-0.017824169248342514,0.037879761308431625,-0.0072799548506736755,-0.44031891226768494,-0.05280469357967377,0.8782187700271606
1732437232.203730345,-0.01249784603714943,0.07090295851230621,-0.013671543449163437,-0.48304352164268494,-0.05573438107967377,0.8581992387771606
1732437232.209778547,-0.01995469629764557,0.0527934692800045,-0.032846301794052124,-0.48279938101768494,-0.07404492795467377,0.8342734575271606
1732437232.214040756,-0.0007799370214343071,0.0005955062806606293,-0.02645471692085266,-0.5272330045700073,-0.09040234982967377,0.8701621294021606
1732437232.219439268,0.031177999451756477,-0.026036106050014496,-0.011541012674570084,-0.5179556608200073,-0.04987500607967377,0.8542929887771606
1732437232.223683596,0.027982203289866447,-0.03136242926120758,-0.027519982308149338,-0.5035513639450073,-0.022775396704673767,0.8718711137771606
1732437232.229920626,0.010937971994280815,-0.018579255789518356,-0.04456420987844467,-0.49061188101768494,-0.021798834204673767,0.8801718950271606
1732437232.233693123,0.0034811217337846756,0.026161853224039078,-0.05202106386423111,-0.5052603483200073,-0.025216802954673767,0.8874961137771606
1732437232.239729881,0.008807443082332611,0.05811978504061699,-0.04030315577983856,-0.5120962858200073,-0.008371100760996342,0.8503867387771606
1732437232.244191408,0.004546385258436203,0.03681449964642525,-0.03071577474474907,-0.5445669889450073,0.009207024239003658,0.8518515825271606
1732437232.249953747,0.0002853274345397949,-0.027101371437311172,-0.011541012674570084,-0.5340689420700073,0.027517572045326233,0.8335410356521606
1732437232.253868103,-0.005040994845330715,-0.07823406159877777,0.002307422459125519,-0.49964508414268494,0.03362108767032623,0.8479453325271606
1732437232.259938478,-0.008236788213253021,-0.08569091558456421,0.006568484008312225,-0.46180328726768494,0.023367181420326233,0.8787070512771606
1732437232.264117718,-0.010367317125201225,-0.04947192221879959,-0.001953631639480591,-0.44471344351768494,0.005544914864003658,0.9065390825271606
1732437232.270053148,-0.01569363847374916,0.0112481489777565,-0.017932601273059845,-0.43641266226768494,-0.015695318579673767,0.8906699419021606
1732437232.273902416,-0.024215754121541977,0.05705452337861061,-0.036042094230651855,-0.44984039664268494,-0.03937695920467377,0.8616172075271606
1732437232.279950380,-0.017824169248342514,0.051728200167417526,-0.04030315577983856,-0.47742828726768494,-0.05915234982967377,0.8394004106521606
1732437232.283783436,-0.008236788213253021,-0.0068613458424806595,-0.0339115671813488,-0.48572906851768494,-0.07013867795467377,0.8406211137771606
1732437232.289721966,0.006676914170384407,-0.07184247672557831,-0.018997862935066223,-0.47620758414268494,-0.06867383420467377,0.8665000200271606
1732437232.293894768,0.017329560592770576,-0.09421303868293762,-0.01686733588576317,-0.44056305289268494,-0.05915234982967377,0.8962851762771606
1732437232.300013065,0.015199029818177223,-0.04627612978219986,-0.022193659096956253,-0.43934234976768494,-0.03815625607967377,0.9150840044021606
1732437232.304195881,0.00561165064573288,0.037879761308431625,-0.03710736334323883,-0.45301422476768494,-0.016671881079673767,0.8957968950271606
1732437232.309574604,-0.006106259301304817,0.08794718980789185,-0.04456420987844467,-0.5079458951950073,-0.005441413260996342,0.8672324419021606
1732437232.313988924,-0.014628374949097633,0.05705452337861061,-0.03497683256864548,-0.5316275358200073,0.007742180489003658,0.8291465044021606
1732437232.319880247,-0.01888943277299404,-0.0281666349619627,-0.013671543449163437,-0.5443228483200073,0.007009758614003658,0.8350058794021606
1732437232.323854208,-0.014628374949097633,-0.10273514688014984,0.010829538106918335,-0.5062369108200073,0.001394524471834302,0.8518515825271606
1732437232.329780340,-0.002910465933382511,-0.11551831662654877,0.02574324607849121,-0.47132477164268494,-0.005929694510996342,0.9062949419021606
1732437232.334110498,-0.006106259301304817,-0.0675814226269722,0.014025337994098663,-0.40613922476768494,-0.017892584204673767,0.9084922075271606
1732437232.339950800,-0.01888943277299404,0.004856564104557037,-0.008345220237970352,-0.40882477164268494,-0.04523633420467377,0.9177695512771606
1732437232.344136953,-0.028476811945438385,0.05492399260401726,-0.028585243970155716,-0.42835602164268494,-0.07380078732967377,0.8926230669021606
1732437232.349685192,-0.022085227072238922,0.05811978504061699,-0.031781040132045746,-0.47596344351768494,-0.09430859982967377,0.8599082231521606
1732437232.353947163,-0.007171523757278919,0.02190079540014267,-0.021128393709659576,-0.5025748014450073,-0.09870313107967377,0.8232871294021606
1732437232.359912872,0.0002853274345397949,-0.04627612978219986,-0.010475747287273407,-0.5045279264450073,-0.10065625607967377,0.8281699419021606
1732437232.363743544,0.002415856346487999,-0.10486568510532379,0.0012421607971191406,-0.46937164664268494,-0.10065625607967377,0.8743125200271606
1732437232.369919062,0.018394822254776955,-0.10593093931674957,0.000176895409822464,-0.42469391226768494,-0.10505078732967377,0.9236289262771606
1732437232.373904943,0.03437379002571106,-0.04627612978219986,0.003372691571712494,-0.39246734976768494,-0.08893750607967377,0.9375449419021606
1732437232.379763842,0.03330852836370468,0.03361870348453522,-0.010475747287273407,-0.40809234976768494,-0.05353711545467377,0.9160605669021606
1732437232.384017706,0.007742179557681084,0.08049033582210541,-0.028585243970155716,-0.44471344351768494,-0.027658209204673767,0.8699179887771606
1732437232.389746428,0.002415856346487999,0.06983770430088043,-0.02325892075896263,-0.5077017545700073,-0.024484381079673767,0.8508750200271606
1732437232.394039154,0.007742179557681084,0.006987093016505241,0.003372691571712494,-0.5223501920700073,-0.008859382010996342,0.8279258012771606
1732437232.399693251,0.010937971994280815,-0.07077721506357193,0.023612715303897858,-0.5059927701950073,0.0001738213177304715,0.8472129106521606
1732437232.404008627,0.007742179557681084,-0.11019200086593628,0.03959168493747711,-0.45594391226768494,0.001394524471834302,0.8911582231521606
1732437232.410037279,0.007742179557681084,-0.08782143890857697,0.03959168493747711,-0.43568024039268494,-0.013742194510996342,0.9482871294021606
1732437232.413855314,0.0002853274345397949,-0.019644519314169884,0.023612715303897858,-0.40027984976768494,-0.025216802954673767,0.9314414262771606
1732437232.419965267,-0.011432581581175327,0.04746714606881142,-0.001953631639480591,-0.42347320914268494,-0.04963086545467377,0.9172812700271606
1732437232.423921824,-0.014628374949097633,0.07409875094890594,-0.021128393709659576,-0.44593414664268494,-0.07575391232967377,0.8796836137771606
1732437232.429571629,-0.0007799370214343071,0.04214082285761833,-0.021128393709659576,-0.48011383414268494,-0.09430859982967377,0.8562461137771606
1732437232.434112310,0.01946008764207363,-0.018579255789518356,-0.010475747287273407,-0.48182281851768494,-0.09186719357967377,0.8535605669021606
1732437232.439699411,0.03330852836370468,-0.06545089185237885,-0.0072799548506736755,-0.45106109976768494,-0.09211133420467377,0.8745566606521606
1732437232.443914890,0.04396117478609085,-0.062255099415779114,-0.006214689463376999,-0.42811188101768494,-0.08039258420467377,0.9104453325271606
1732437232.449997187,0.04822222888469696,-0.01751399040222168,-0.008345220237970352,-0.43397125601768494,-0.04987500607967377,0.9307090044021606
1732437232.453739405,0.03330852836370468,0.04640187695622444,-0.0200631283223629,-0.44324859976768494,-0.004220710135996342,0.8914023637771606
1732437232.459994316,0.01306850090622902,0.07942508161067963,-0.032846301794052124,-0.48328766226768494,0.022146478295326233,0.8542929887771606
1732437232.463987112,0.0002853274345397949,0.05492399260401726,-0.028585243970155716,-0.5357779264450073,0.027029290795326233,0.8437949419021606
1732437232.469687462,0.01306850090622902,-0.011122403666377068,-0.009410485625267029,-0.5384634733200073,0.020925775170326233,0.8433066606521606
1732437232.474099636,0.03437379002571106,-0.06438562273979187,0.021482184529304504,-0.5181998014450073,0.04460741579532623,0.8525840044021606
1732437232.480039597,0.021590618416666985,-0.08569091558456421,0.027873769402503967,-0.47376617789268494,0.06340624392032623,0.8708945512771606
1732437232.483964443,-0.005040994845330715,-0.06864668428897858,0.004437953233718872,-0.43641266226768494,0.04167772829532623,0.8994590044021606
1732437232.489760637,-0.01249784603714943,-0.0068613458424806595,-0.009410485625267029,-0.43812164664268494,0.013845696114003658,0.9075156450271606
1732437232.493709087,-0.005040994845330715,0.04959766939282417,-0.0200631283223629,-0.44666656851768494,0.002126946346834302,0.8691855669021606
1732437232.499699354,-0.01569363847374916,0.04427134618163109,-0.03071577474474907,-0.47156891226768494,-0.018136724829673767,0.8498984575271606
1732437232.504017115,-0.014628374949097633,-0.014318197034299374,-0.036042094230651855,-0.46912750601768494,-0.04816602170467377,0.8513633012771606
1732437232.509752750,0.012003237381577492,-0.06545089185237885,-0.0200631283223629,-0.44910797476768494,-0.06354688107967377,0.8738242387771606
1732437232.513655424,0.029047468677163124,-0.08036459982395172,-0.005149427801370621,-0.43885406851768494,-0.04352734982967377,0.9060508012771606
1732437232.519998312,0.024786410853266716,-0.050537191331386566,-0.017932601273059845,-0.42347320914268494,-0.024728521704673767,0.9089804887771606
1732437232.523669720,0.012003237381577492,0.01444394513964653,-0.02645471692085266,-0.43787750601768494,-0.004220710135996342,0.8918906450271606
1732437232.529945374,-0.005040994845330715,0.06131558492779732,-0.03710736334323883,-0.47352203726768494,0.013357414864003658,0.8657675981521606
1732437232.533978701,-0.022085227072238922,0.04959766939282417,-0.036042094230651855,-0.49158844351768494,0.016775384545326233,0.8396445512771606
1732437232.539927006,-0.01249784603714943,-0.014318197034299374,-0.014736805111169815,-0.5230826139450073,-0.0003144599322695285,0.8628379106521606
1732437232.543784142,0.002415856346487999,-0.07929933071136475,0.014025337994098663,-0.47303375601768494,0.002126946346834302,0.8679648637771606
1732437232.549896479,0.006676914170384407,-0.09847408533096313,0.02254745364189148,-0.42908844351768494,0.0001738213177304715,0.8970175981521606
1732437232.554142714,0.0002853274345397949,-0.062255099415779114,0.015090599656105042,-0.40858063101768494,-0.013253913260996342,0.9275351762771606
1732437232.559705019,-0.01569363847374916,0.0005955062806606293,-0.006214689463376999,-0.39783844351768494,-0.03254102170467377,0.9194785356521606
1732437232.564121723,-0.034868400543928146,0.04214082285761833,-0.03071577474474907,-0.40711578726768494,-0.06061719357967377,0.8909140825271606
1732437232.569959879,-0.03060734272003174,0.04746714606881142,-0.04349894821643829,-0.44520172476768494,-0.09504102170467377,0.8728476762771606
1732437232.574196100,-0.009302052669227123,0.018705002963542938,-0.03497683256864548,-0.46619781851768494,-0.10480664670467377,0.8586875200271606
1732437232.579806805,0.017329560592770576,-0.022840313613414764,-0.025389451533555984,-0.46888336539268494,-0.09675000607967377,0.8613730669021606
1732437232.583980322,0.02691694162786007,-0.057994041591882706,-0.022193659096956253,-0.44446930289268494,-0.07599805295467377,0.8774863481521606
1732437232.589586258,0.027982203289866447,-0.05692877620458603,-0.027519982308149338,-0.43275055289268494,-0.06134961545467377,0.9004355669021606
1732437232.593865871,0.032243259251117706,-0.013252932578325272,-0.032846301794052124,-0.43494781851768494,-0.04377149045467377,0.9097129106521606
1732437232.599829674,0.024786410853266716,0.03574923425912857,-0.03710736334323883,-0.44813141226768494,-0.010324225760996342,0.8801718950271606
1732437232.604146481,0.0013505928218364716,0.0527934692800045,-0.0477600060403347,-0.47791656851768494,0.005544914864003658,0.8574668169021606
1732437232.609851360,-0.002910465933382511,0.022966060787439346,-0.03497683256864548,-0.5096548795700073,0.001638665096834302,0.8613730669021606
1732437232.614245176,0.007742179557681084,-0.030297163873910904,-0.005149427801370621,-0.5040396451950073,0.013845696114003658,0.8728476762771606
1732437232.619723320,0.014133766293525696,-0.07716879993677139,0.021482184529304504,-0.48939117789268494,0.03191210329532623,0.8926230669021606
1732437232.623795748,0.00561165064573288,-0.07716879993677139,0.02254745364189148,-0.47010406851768494,0.03728319704532623,0.9058066606521606
1732437232.630057812,-0.013563110493123531,-0.030297163873910904,0.014025337994098663,-0.45008453726768494,0.026296868920326233,0.8962851762771606
1732437232.633989811,-0.03806419298052788,0.02190079540014267,-0.0072799548506736755,-0.45008453726768494,0.0001738213177304715,0.8755332231521606
1732437232.639776707,-0.04552104324102402,0.04214082285761833,-0.018997862935066223,-0.47840484976768494,-0.04841016232967377,0.8691855669021606
1732437232.644016266,-0.02315049059689045,0.012313414365053177,-0.010475747287273407,-0.46912750601768494,-0.08966992795467377,0.8486777544021606
1732437232.650171041,0.0002853274345397949,-0.051602452993392944,0.00550321489572525,-0.45179352164268494,-0.10187695920467377,0.8655234575271606
1732437232.654057741,0.01306850090622902,-0.09740883111953735,0.006568484008312225,-0.41321930289268494,-0.09821484982967377,0.9014121294021606
1732437232.659784317,0.02372114546597004,-0.08888670802116394,-0.0008883699774742126,-0.38123688101768494,-0.08747266232967377,0.9414511919021606
1732437232.663749456,0.025851676240563393,-0.022840313613414764,-0.013671543449163437,-0.38074859976768494,-0.05671094357967377,0.9485312700271606
1732437232.669795752,0.009872708469629288,0.0527934692800045,-0.03710736334323883,-0.39881500601768494,-0.020333990454673767,0.9109336137771606
1732437232.674475431,-0.003975730389356613,0.09220825135707855,-0.049890533089637756,-0.45618805289268494,-0.006417975760996342,0.8743125200271606
1732437232.679561377,0.0034811217337846756,0.06877243518829346,-0.03710736334323883,-0.49720367789268494,0.005056633614003658,0.8528281450271606
1732437232.683843613,0.0162642952054739,-0.0068613458424806595,-0.009410485625267029,-0.5086783170700073,0.022390618920326233,0.8481894731521606
1732437232.689729214,0.010937971994280815,-0.07610353827476501,0.01189480721950531,-0.48865875601768494,0.03533007204532623,0.8584433794021606
1732437232.693968296,-0.0018452014774084091,-0.08995197713375092,0.01935165375471115,-0.45618805289268494,0.03191210329532623,0.9004355669021606
1732437232.699785233,-0.011432581581175327,-0.04627612978219986,0.014025337994098663,-0.43250641226768494,0.013357414864003658,0.9236289262771606
1732437232.704204798,-0.021019961684942245,0.022966060787439346,0.000176895409822464,-0.42200836539268494,-0.013498053885996342,0.8999472856521606
1732437232.709689617,-0.027411548420786858,0.06557664275169373,-0.01686733588576317,-0.43470367789268494,-0.04670117795467377,0.8650351762771606
1732437232.714017630,-0.025281019508838654,0.04533661529421806,-0.024324186146259308,-0.44691070914268494,-0.08332227170467377,0.8547812700271606
1732437232.719934464,-0.010367317125201225,-0.014318197034299374,-0.018997862935066223,-0.45106109976768494,-0.11139844357967377,0.8704062700271606
1732437232.723860502,0.014133766293525696,-0.06545089185237885,-0.0072799548506736755,-0.42811188101768494,-0.11701367795467377,0.8997031450271606
1732437232.729732752,0.03330852836370468,-0.07290774583816528,-0.001953631639480591,-0.41199859976768494,-0.09919141232967377,0.9319297075271606
1732437232.733945608,0.025851676240563393,-0.023905577138066292,-0.017932601273059845,-0.38807281851768494,-0.05988477170467377,0.9192343950271606
1732437232.739865303,0.004546385258436203,0.05385873094201088,-0.03817262500524521,-0.43104156851768494,-0.028146490454673767,0.9092246294021606
1732437232.743782282,0.0002853274345397949,0.11244827508926392,-0.04562947899103165,-0.48792633414268494,-0.002267584903165698,0.8769980669021606
1732437232.749952555,0.008807443082332611,0.09540404379367828,-0.03071577474474907,-0.5389517545700073,0.016775384545326233,0.8394004106521606
1732437232.753979206,0.01306850090622902,0.01444394513964653,-0.005149427801370621,-0.5487173795700073,0.031179681420326233,0.8257285356521606
1732437232.759678364,0.00561165064573288,-0.07610353827476501,0.020416922867298126,-0.5265005826950073,0.027273431420326233,0.8455039262771606
1732437232.763801813,-0.0018452014774084091,-0.11445306241512299,0.03320009261369705,-0.48353180289268494,0.002859368221834302,0.8862754106521606
1732437232.769944906,-0.014628374949097633,-0.07397300750017166,0.032134830951690674,-0.43690094351768494,-0.021066412329673767,0.9014121294021606
1732437232.773561001,-0.027411548420786858,0.006987093016505241,0.008699014782905579,-0.42982086539268494,-0.05451367795467377,0.9045859575271606
1732437232.780010700,-0.02954207733273506,0.05705452337861061,-0.013671543449163437,-0.42737945914268494,-0.09723828732967377,0.8769980669021606
1732437232.784063578,-0.009302052669227123,0.03574923425912857,-0.024324186146259308,-0.44544586539268494,-0.12067578732967377,0.8806601762771606
1732437232.789641380,0.017329560592770576,-0.03242769092321396,-0.025389451533555984,-0.44080719351768494,-0.12018750607967377,0.8872519731521606
1732437232.794191360,0.049287497997283936,-0.07503826916217804,-0.022193659096956253,-0.43372711539268494,-0.09967969357967377,0.8982383012771606
1732437232.799634218,0.05461382120847702,-0.0537329837679863,-0.028585243970155716,-0.40443024039268494,-0.05426953732967377,0.8879843950271606
1732437232.804174423,0.0301127340644598,0.006987093016505241,-0.049890533089637756,-0.42103180289268494,-0.021066412329673767,0.8860312700271606
1732437232.809530735,0.009872708469629288,0.059185054153203964,-0.06267371028661728,-0.45203766226768494,-0.005929694510996342,0.8779746294021606
1732437232.813848019,0.010937971994280815,0.062380846589803696,-0.0477600060403347,-0.49964508414268494,0.010427727364003658,0.8779746294021606
1732437232.819962263,0.02691694162786007,0.01444394513964653,-0.01686733588576317,-0.5057486295700073,0.03166796267032623,0.8613730669021606
1732437232.824134588,0.0301127340644598,-0.05266771838068962,0.01615586131811142,-0.5089224576950073,0.04656054079532623,0.8757773637771606
1732437232.829677105,0.012003237381577492,-0.09101724624633789,0.03000430017709732,-0.47327789664268494,0.05437304079532623,0.8848105669021606
1732437232.833755970,-0.01569363847374916,-0.06864668428897858,0.02254745364189148,-0.43690094351768494,0.028005853295326233,0.8918906450271606
1732437232.839507103,-0.03380313515663147,-0.003665551543235779,0.01189480721950531,-0.44227203726768494,-0.013742194510996342,0.9011679887771606
1732437232.843963861,-0.04339051619172096,0.04320608451962471,-0.0008883699774742126,-0.42689117789268494,-0.05671094357967377,0.8760215044021606
1732437232.849776745,-0.02954207733273506,0.019770268350839615,-0.001953631639480591,-0.44739899039268494,-0.10260938107967377,0.8884726762771606
1732437232.853771925,0.0034811217337846756,-0.040949806571006775,0.004437953233718872,-0.40735992789268494,-0.12018750607967377,0.8914023637771606
1732437232.859713554,0.038634851574897766,-0.07610353827476501,0.00550321489572525,-0.37806305289268494,-0.10822461545467377,0.9150840044021606
1732437232.863985062,0.04715696722269058,-0.05692877620458603,-0.010475747287273407,-0.35340484976768494,-0.07404492795467377,0.9250937700271606
1732437232.869602203,0.027982203289866447,0.009117621928453445,-0.04562947899103165,-0.37220367789268494,-0.04889844357967377,0.9246054887771606
1732437232.873775244,0.01306850090622902,0.08368614315986633,-0.06586950272321701,-0.42200836539268494,-0.031076177954673767,0.9097129106521606
1732437232.879655600,0.014133766293525696,0.1177745908498764,-0.05628212168812752,-0.49500641226768494,0.002615227596834302,0.8684531450271606
1732437232.883782625,0.01946008764207363,0.07303349673748016,-0.0339115671813488,-0.5489615201950073,0.03215624392032623,0.8362265825271606
1732437232.889770269,0.01946008764207363,-0.023905577138066292,-0.0008883699774742126,-0.5543326139450073,0.05241991579532623,0.8306113481521606
1732437232.894007444,0.009872708469629288,-0.10060462355613708,0.02574324607849121,-0.5277212858200073,0.05315233767032623,0.8555136919021606
1732437232.899712086,-0.005040994845330715,-0.10166987776756287,0.03426536172628403,-0.48572906851768494,0.03410936892032623,0.8845664262771606
1732437232.903923750,-0.027411548420786858,-0.03562348708510399,0.023612715303897858,-0.43641266226768494,0.005544914864003658,0.8818808794021606
1732437232.910038233,-0.042325250804424286,0.027227118611335754,-0.004084162414073944,-0.42518219351768494,-0.05524609982967377,0.8901816606521606
1732437232.914010286,-0.02634628489613533,0.03148817643523216,-0.010475747287273407,-0.42591461539268494,-0.10920117795467377,0.8948203325271606
1732437232.919972658,0.008807443082332611,-0.019644519314169884,-0.008345220237970352,-0.41639313101768494,-0.11945508420467377,0.8923789262771606
1732437232.923945665,0.03330852836370468,-0.06971195340156555,-0.011541012674570084,-0.40076813101768494,-0.09992383420467377,0.8957968950271606
1732437232.929762125,0.03756958246231079,-0.06118983402848244,-0.027519982308149338,-0.38392242789268494,-0.06818555295467377,0.8984824419021606
1732437232.933931112,0.029047468677163124,-0.0068613458424806595,-0.05095579847693443,-0.39979156851768494,-0.04499219357967377,0.9043418169021606
1732437232.939677954,0.018394822254776955,0.048532407730817795,-0.0616084448993206,-0.44129547476768494,-0.021798834204673767,0.9038535356521606
1732437232.943829775,0.014133766293525696,0.06983770430088043,-0.05521685630083084,-0.49329742789268494,0.006765617989003658,0.8796836137771606
1732437232.949768066,0.014133766293525696,0.03681449964642525,-0.03497683256864548,-0.5135611295700073,0.030203118920326233,0.8469687700271606
1732437232.953961849,0.017329560592770576,-0.03881927952170372,-0.009410485625267029,-0.5352896451950073,0.03166796267032623,0.8662558794021606
1732437232.959912777,0.014133766293525696,-0.08888670802116394,0.018286392092704773,-0.49793609976768494,0.04094530642032623,0.8691855669021606
1732437232.964024544,-0.002910465933382511,-0.07610353827476501,0.02680850774049759,-0.45814117789268494,0.03703905642032623,0.8821250200271606
1732437232.970004559,-0.039129458367824554,-0.027101371437311172,0.008699014782905579,-0.40760406851768494,-0.001779303653165698,0.8894492387771606
1732437232.973703861,-0.039129458367824554,0.015509210526943207,-0.001953631639480591,-0.41395172476768494,-0.07184766232967377,0.9219199419021606
1732437232.979654074,-0.002910465933382511,0.02190079540014267,0.01189480721950531,-0.42957672476768494,-0.09577344357967377,0.9385215044021606
1732437232.984048128,0.014133766293525696,-0.02070978283882141,0.012960068881511688,-0.40467438101768494,-0.07306836545467377,0.9019004106521606
1732437232.990076542,0.0013505928218364716,-0.06545089185237885,-0.013671543449163437,-0.38734039664268494,-0.06965039670467377,0.9163047075271606
1732437232.993798971,0.009872708469629288,-0.04947192221879959,-0.0339115671813488,-0.37000641226768494,-0.07380078732967377,0.9355918169021606
1732437232.999625206,0.03330852836370468,0.02190079540014267,-0.04136841744184494,-0.40101227164268494,-0.04206250607967377,0.9341269731521606
1732437233.003859520,0.027982203289866447,0.09114298224449158,-0.057347387075424194,-0.44300445914268494,0.011648430489003658,0.8860312700271606
1732437233.009608746,0.00561165064573288,0.10925248265266418,-0.06800003349781036,-0.5069693326950073,0.03288866579532623,0.8457480669021606
1732437233.014023304,0.0034811217337846756,0.059185054153203964,-0.049890533089637756,-0.5487173795700073,0.03703905642032623,0.8325644731521606
1732437233.019691467,0.004546385258436203,-0.033492956310510635,-0.013671543449163437,-0.5562857389450073,0.04949022829532623,0.8415976762771606
1732437233.024484634,-0.005040994845330715,-0.10166987776756287,0.008699014782905579,-0.5142935514450073,0.04314257204532623,0.8530722856521606
1732437233.029588223,-0.01995469629764557,-0.08888670802116394,0.017221130430698395,-0.45814117789268494,0.010183586739003658,0.8767539262771606
1732437233.033852100,-0.025281019508838654,-0.02497084066271782,0.009764276444911957,-0.40833649039268494,-0.03400586545467377,0.8962851762771606
1732437233.039947271,-0.017824169248342514,0.026161853224039078,-0.001953631639480591,-0.40174469351768494,-0.07795117795467377,0.9150840044021606
1732437233.043837547,-0.01569363847374916,0.020835530012845993,-0.011541012674570084,-0.39295563101768494,-0.09919141232967377,0.9065390825271606
1732437233.049622774,-0.011432581581175327,-0.015383461490273476,-0.017932601273059845,-0.40223297476768494,-0.11115430295467377,0.9106894731521606
1732437233.053874969,0.008807443082332611,-0.01751399040222168,-0.017932601273059845,-0.41053375601768494,-0.07453320920467377,0.8801718950271606
1732437233.059910536,0.0162642952054739,0.0112481489777565,-0.01686733588576317,-0.45667633414268494,-0.026193365454673767,0.8928672075271606
1732437233.063795090,0.007742179557681084,0.02829238399863243,-0.036042094230651855,-0.45179352164268494,-0.002023444278165698,0.8738242387771606
1732437233.069654465,0.00561165064573288,0.03574923425912857,-0.04136841744184494,-0.47645172476768494,-0.000558600528165698,0.8672324419021606
1732437233.073853493,0.017329560592770576,0.0389450266957283,-0.022193659096956253,-0.49744781851768494,0.011648430489003658,0.8479453325271606
1732437233.079700232,-0.0007799370214343071,-0.00046975910663604736,-0.0200631283223629,-0.5089224576950073,0.000906243221834302,0.8574668169021606
1732437233.084411383,-0.024215754121541977,-0.04840666055679321,-0.008345220237970352,-0.5196646451950073,-0.029855474829673767,0.8884726762771606
1732437233.089879036,-0.013563110493123531,-0.044145602732896805,0.01189480721950531,-0.48865875601768494,-0.05304883420467377,0.8870078325271606
1732437233.093630791,-0.003975730389356613,-0.021775048226118088,0.012960068881511688,-0.44813141226768494,-0.07062695920467377,0.8896933794021606
1732437233.099739790,0.0034811217337846756,-0.021775048226118088,0.0076337456703186035,-0.45399078726768494,-0.09992383420467377,0.9348593950271606
1732437233.104253531,0.010937971994280815,-0.027101371437311172,0.0012421607971191406,-0.41736969351768494,-0.10529492795467377,0.9209433794021606
1732437233.109685421,0.007742179557681084,-0.010057139210402966,-0.01580207049846649,-0.40467438101768494,-0.10260938107967377,0.9040976762771606
1732437233.114023209,0.0013505928218364716,0.0250965878367424,-0.031781040132045746,-0.43787750601768494,-0.09821484982967377,0.8945761919021606
1732437233.119814396,0.009872708469629288,0.05492399260401726,-0.029650509357452393,-0.5011099576950073,-0.08356641232967377,0.8838340044021606
1732437233.123911381,0.02265588380396366,0.0527934692800045,-0.014736805111169815,-0.5152701139450073,-0.04303906857967377,0.8372031450271606
1732437233.129866123,0.020525353029370308,0.005921827629208565,-0.004084162414073944,-0.5094107389450073,-0.018136724829673767,0.8113242387771606
1732437233.133864880,0.0162642952054739,-0.05905930697917938,0.00550321489572525,-0.48109039664268494,-0.027169927954673767,0.8364707231521606
1732437233.139921665,0.02372114546597004,-0.09634356200695038,0.021482184529304504,-0.44178375601768494,-0.04084180295467377,0.8867636919021606
1732437233.143783331,0.018394822254776955,-0.08036459982395172,0.027873769402503967,-0.40052399039268494,-0.04621289670467377,0.9031211137771606
1732437233.149649858,-0.002910465933382511,-0.019644519314169884,0.009764276444911957,-0.37586578726768494,-0.06330274045467377,0.9058066606521606
1732437233.154053688,-0.005040994845330715,0.04107555374503136,-0.0030188970267772675,-0.40174469351768494,-0.09064649045467377,0.9084922075271606
1732437233.159613371,0.01306850090622902,0.05811978504061699,0.000176895409822464,-0.40955719351768494,-0.08747266232967377,0.8669883012771606
1732437233.163947582,0.025851676240563393,0.015509210526943207,0.004437953233718872,-0.43665680289268494,-0.07160352170467377,0.8594199419021606
1732437233.169725657,0.027982203289866447,-0.0398845449090004,0.0012421607971191406,-0.41151031851768494,-0.05817578732967377,0.8440390825271606
1732437233.173785925,0.03650432080030441,-0.04947192221879959,0.002307422459125519,-0.42444977164268494,-0.04621289670467377,0.8726035356521606
1732437233.179767132,0.042895905673503876,-0.005796080455183983,0.0012421607971191406,-0.41517242789268494,-0.012765632010996342,0.8638144731521606
1732437233.184531450,0.02372114546597004,0.03148817643523216,-0.01260627806186676,-0.42640289664268494,0.016775384545326233,0.8647910356521606
1732437233.189693213,0.01306850090622902,0.026161853224039078,-0.0200631283223629,-0.45325836539268494,0.018728509545326233,0.8828574419021606
1732437233.194011211,0.02691694162786007,-0.0015350226312875748,-0.004084162414073944,-0.47840484976768494,0.03191210329532623,0.8872519731521606
1732437233.199729919,0.03756958246231079,-0.027101371437311172,0.0076337456703186035,-0.49647125601768494,0.06731249392032623,0.8821250200271606
1732437233.203921556,0.01306850090622902,-0.0398845449090004,-0.0008883699774742126,-0.47864899039268494,0.08757616579532623,0.8791953325271606
1732437233.209753275,-0.010367317125201225,-0.033492956310510635,-0.018997862935066223,-0.45911774039268494,0.06658007204532623,0.8953086137771606
1732437233.213738203,-0.002910465933382511,-0.0047308169305324554,-0.021128393709659576,-0.46351227164268494,0.03581835329532623,0.9004355669021606
1732437233.219828129,0.01306850090622902,0.008052356541156769,-0.013671543449163437,-0.46497711539268494,0.028982415795326233,0.8901816606521606
1732437233.223648071,-0.005040994845330715,-0.01751399040222168,-0.021128393709659576,-0.45814117789268494,0.024832025170326233,0.8865195512771606
1732437233.229669571,-0.01995469629764557,-0.0537329837679863,-0.03071577474474907,-0.42835602164268494,-0.010568366385996342,0.8921347856521606
1732437233.234109640,-0.008236788213253021,-0.047341395169496536,-0.028585243970155716,-0.40125641226768494,-0.03840039670467377,0.9062949419021606
1732437233.239756584,0.018394822254776955,-0.003665551543235779,-0.018997862935066223,-0.41810211539268494,-0.026681646704673767,0.9160605669021606
1732437233.243838072,0.01306850090622902,0.034683968871831894,-0.025389451533555984,-0.41126617789268494,0.006765617989003658,0.8630820512771606
1732437233.250027180,-0.01569363847374916,0.03148817643523216,-0.04030315577983856,-0.43226227164268494,0.004568352364003658,0.8552695512771606
1732437233.253893137,-0.01888943277299404,0.0005955062806606293,-0.029650509357452393,-0.47181305289268494,-0.022775396704673767,0.8953086137771606
1732437233.259769440,-0.005040994845330715,-0.040949806571006775,-0.009410485625267029,-0.44324859976768494,-0.029611334204673767,0.8840781450271606
1732437233.263869762,-0.007171523757278919,-0.062255099415779114,0.000176895409822464,-0.44959625601768494,-0.03156445920467377,0.9087363481521606
1732437233.269956350,-0.009302052669227123,-0.04201507568359375,-0.008345220237970352,-0.43372711539268494,-0.05378125607967377,0.9231406450271606
1732437233.273855686,0.0002853274345397949,0.010182887315750122,-0.011541012674570084,-0.42957672476768494,-0.07111524045467377,0.9163047075271606
1732437233.280010700,-0.006106259301304817,0.0389450266957283,-0.024324186146259308,-0.44276031851768494,-0.07453320920467377,0.9011679887771606
1732437233.283698320,-0.022085227072238922,0.037879761308431625,-0.04562947899103165,-0.44593414664268494,-0.08991406857967377,0.8613730669021606
1732437233.289666414,-0.009302052669227123,0.026161853224039078,-0.04349894821643829,-0.46961578726768494,-0.12287305295467377,0.8518515825271606
1732437233.293834209,0.024786410853266716,0.008052356541156769,-0.018997862935066223,-0.5025748014450073,-0.11457227170467377,0.8564902544021606
1732437233.299890518,0.024786410853266716,-0.03242769092321396,-0.009410485625267029,-0.49354156851768494,-0.07428906857967377,0.8362265825271606
1732437233.303988218,0.008807443082332611,-0.0675814226269722,-0.018997862935066223,-0.47083649039268494,-0.07428906857967377,0.8701621294021606
1732437233.309547901,0.018394822254776955,-0.06332036852836609,-0.01580207049846649,-0.43934234976768494,-0.08039258420467377,0.8977500200271606
1732437233.313859463,0.032243259251117706,-0.036688752472400665,-0.014736805111169815,-0.43006500601768494,-0.06550000607967377,0.9106894731521606
1732437233.320014000,0.021590618416666985,-0.0026002880185842514,-0.02325892075896263,-0.43690094351768494,-0.05207227170467377,0.8938437700271606
1732437233.323687315,0.015199029818177223,0.022966060787439346,-0.028585243970155716,-0.45716461539268494,-0.05182813107967377,0.8801718950271606
1732437233.329943895,0.025851676240563393,0.01763973757624626,-0.013671543449163437,-0.47889313101768494,-0.04694531857967377,0.8762656450271606
1732437233.334202290,0.027982203289866447,-0.030297163873910904,0.004437953233718872,-0.47254547476768494,-0.03864453732967377,0.8723593950271606
1732437233.339883566,0.012003237381577492,-0.08036459982395172,0.01189480721950531,-0.43592438101768494,-0.03449414670467377,0.8701621294021606
1732437233.343906879,0.009872708469629288,-0.07610353827476501,0.018286392092704773,-0.41663727164268494,-0.03571484982967377,0.9028769731521606
1732437233.349914551,0.02265588380396366,-0.016448725014925003,0.02574324607849121,-0.42469391226768494,-0.020822271704673767,0.9236289262771606
1732437233.353754520,0.02265588380396366,0.03681449964642525,0.023612715303897858,-0.42078766226768494,0.003347649471834302,0.8838340044021606
1732437233.359882832,0.00561165064573288,0.034683968871831894,0.015090599656105042,-0.46839508414268494,0.010916008614003658,0.8843222856521606
1732437233.364153147,-0.006106259301304817,-0.010057139210402966,0.015090599656105042,-0.48279938101768494,0.007009758614003658,0.8811484575271606
1732437233.369591236,0.0002853274345397949,-0.06118983402848244,0.017221130430698395,-0.47523102164268494,-0.002511725528165698,0.8904258012771606
1732437233.373840332,0.014133766293525696,-0.08036459982395172,0.01935165375471115,-0.45106109976768494,-0.004953132010996342,0.8997031450271606
1732437233.379744530,0.014133766293525696,-0.054798245429992676,0.004437953233718872,-0.43104156851768494,-0.009591803885996342,0.9221640825271606
1732437233.383805275,0.012003237381577492,-0.013252932578325272,-0.01580207049846649,-0.39979156851768494,-0.024240240454673767,0.9172812700271606
1732437233.389830112,0.015199029818177223,0.01763973757624626,-0.03071577474474907,-0.41346344351768494,-0.03522656857967377,0.9167929887771606
1732437233.394162893,0.010937971994280815,0.02190079540014267,-0.039237890392541885,-0.42029938101768494,-0.015939459204673767,0.8774863481521606
1732437233.399738550,-0.0007799370214343071,0.016574472188949585,-0.046694740653038025,-0.42786774039268494,0.007498039864003658,0.8289023637771606
1732437233.404054880,0.0013505928218364716,-0.00046975910663604736,-0.0339115671813488,-0.49940094351768494,0.03410936892032623,0.8660117387771606
1732437233.409941435,0.004546385258436203,-0.033492956310510635,-0.0200631283223629,-0.48475250601768494,0.07463671267032623,0.8735800981521606
1732437233.414040089,0.006676914170384407,-0.07397300750017166,-0.0200631283223629,-0.45252594351768494,0.07683397829532623,0.9402304887771606
1732437233.419839144,0.018394822254776955,-0.09847408533096313,-0.024324186146259308,-0.34949859976768494,0.07073046267032623,0.9590293169021606
1732437233.423701286,0.024786410853266716,-0.07184247672557831,-0.04562947899103165,-0.33729156851768494,0.06535936892032623,0.9829550981521606
1732437233.429913998,0.014133766293525696,0.0250965878367424,-0.0711958259344101,-0.33900055289268494,0.07268358767032623,0.9316855669021606
1732437233.433688402,-0.014628374949097633,0.12523144483566284,-0.09356637299060822,-0.40369781851768494,0.06731249392032623,0.8943320512771606
1732437233.439765692,-0.0369989275932312,0.14653673768043518,-0.09676217287778854,-0.49720367789268494,0.05217577517032623,0.8467246294021606
1732437233.444030046,-0.04125998914241791,0.08475139737129211,-0.0754568800330162,-0.5396841764450073,0.04656054079532623,0.7959433794021606
1732437233.449740410,-0.02634628489613533,-0.005796080455183983,-0.027519982308149338,-0.5711783170700073,0.04460741579532623,0.8008261919021606
1732437233.454151392,-0.016758903861045837,-0.08036459982395172,0.009764276444911957,-0.5504263639450073,0.03484179079532623,0.8184043169021606
1732437233.459669828,-0.03060734272003174,-0.09634356200695038,0.027873769402503967,-0.5042837858200073,-0.006662116385996342,0.8550254106521606
1732437233.463774204,-0.0508473664522171,-0.057994041591882706,0.03000430017709732,-0.44617828726768494,-0.05475781857967377,0.8652793169021606
1732437233.469948530,-0.07108739018440247,-0.013252932578325272,0.010829538106918335,-0.41907867789268494,-0.11847852170467377,0.8867636919021606
1732437233.473997593,-0.06576106697320938,-0.0026002880185842514,0.000176895409822464,-0.41175445914268494,-0.20026563107967377,0.8960410356521606
1732437233.479689121,-0.03380313515663147,-0.019644519314169884,0.0012421607971191406,-0.42640289664268494,-0.25495314598083496,0.9209433794021606
1732437233.483903885,-0.005040994845330715,-0.03455822169780731,-0.0030188970267772675,-0.41370758414268494,-0.26716017723083496,0.9116660356521606
1732437233.490011215,0.02265588380396366,-0.021775048226118088,-0.010475747287273407,-0.43494781851768494,-0.26862502098083496,0.9263144731521606
1732437233.494420290,0.038634851574897766,0.0112481489777565,-0.022193659096956253,-0.45106109976768494,-0.26081252098083496,0.9119101762771606
